File: dat/as_pf_BH-steel.UXD
; C:\DIFFDAT1\GIFT\MML\youngung\11-1-BH\as_R.raw(Diffrac Plus V1.01 file) converted by XCH V1.0
_FILEVERSION=2
_SITE='Korea'
_USER='Admin'
_SAMPLE_CHANGER_CODE=0
_ATTACHMENTS_CODE=0
_GONIOMETER_RADIUS=300
_FIXED_DIVSLIT=1.000000
_FIXED_SAMPLESLIT=0.000000
_FIXED_DETSLIT=0.100000
_MONOCHROMATOR=0
; None
_THIN_FILM='N'
_BETA_FILTER='Y'
_FIXED_ANTISLIT=0.600000
_ANALYZER_CODE=0
; None
_DATEMEASURED='16-Apr-2011 18:18:38'
_WL_UNIT='A'
_WL1=1.788970
_WL2=1.792850
_WL3=1.620790
_WLRATIO=0.500000
_ANODE='Co'
; (Data for Range number 1)
_DRIVE='PHI'
_STEPTIME=2.000000
_STEPSIZE=5.000000
_STEPMODE='C'
_START=0.000000
_THETA=26.2245
_2THETA=52.449
_KHI=0.000000
_PHI=0.000000
_X=0.000000
_Y=0.000000
_Z=0.000000
_DIVERGENCE=3.000000
_ANTISCATTER=3.000000
_DETECTOR=1
; S.C.
_HV=687
_GAIN=80
_LLD=0.690000
_ULD=1.866000
_DETECTORSLIT='unkn'
_AUX1=0.000000
_AUX2=0.000000
_AUX3=0.000000
_TIMESTARTED=13
_TEMP_RATE=0.000000
_TEMP_DELAY=0.000000
_KV=35
_MA=40
_RANGE_WL=1.788970
_3DPLANE=0
_2THETACOUNTS
   0.0000      4824
   5.0000      5140
  10.0000      4948
  15.0000      4969
  20.0000      5076
  25.0000      4907
  30.0000      4846
  35.0000      4765
  40.0000      4631
  45.0000      4632
  50.0000      4520
  55.0000      4743
  60.0000      4783
  65.0000      4572
  70.0000      4629
  75.0000      4743
  80.0000      4766
  85.0000      4683
  90.0000      4571
  95.0000      4663
 100.0000      4644
 105.0000      4601
 110.0000      4658
 115.0000      4688
 120.0000      4742
 125.0000      4558
 130.0000      4660
 135.0000      4621
 140.0000      4494
 145.0000      4550
 150.0000      4639
 155.0000      4843
 160.0000      4752
 165.0000      4756
 170.0000      4823
 175.0000      4983
 180.0000      4915
 185.0000      5175
 190.0000      5103
 195.0000      4985
 200.0000      5048
 205.0000      4990
 210.0000      4776
 215.0000      4809
 220.0000      4647
 225.0000      4795
 230.0000      4606
 235.0000      4716
 240.0000      4681
 245.0000      4751
 250.0000      4800
 255.0000      5017
 260.0000      5142
 265.0000      5112
 270.0000      5127
 275.0000      5177
 280.0000      5104
 285.0000      5144
 290.0000      5103
 295.0000      5003
 300.0000      4880
 305.0000      4813
 310.0000      4858
 315.0000      4809
 320.0000      4825
 325.0000      4880
 330.0000      4891
 335.0000      4871
 340.0000      4824
 345.0000      4845
 350.0000      5008
 355.0000      4954
; (Data for Range number 2)
_DRIVE='PHI'
_STEPTIME=2.000000
_STEPSIZE=5.000000
_STEPMODE='C'
_START=0.000000
_THETA=26.2245
_2THETA=52.449
_KHI=5.000000
_PHI=0.000000
_X=0.000000
_Y=0.000000
_Z=0.000000
_DIVERGENCE=3.000000
_ANTISCATTER=3.000000
_DETECTOR=1
; S.C.
_HV=687
_GAIN=80
_LLD=0.690000
_ULD=1.866000
_DETECTORSLIT='unkn'
_AUX1=0.000000
_AUX2=0.000000
_AUX3=0.000000
_TIMESTARTED=218
_TEMP_RATE=0.000000
_TEMP_DELAY=0.000000
_KV=35
_MA=40
_RANGE_WL=1.788970
_3DPLANE=0
_2THETACOUNTS
   0.0000      5490
   5.0000      5228
  10.0000      5099
  15.0000      5311
  20.0000      5031
  25.0000      5159
  30.0000      4962
  35.0000      4524
  40.0000      4600
  45.0000      4831
  50.0000      5454
  55.0000      5277
  60.0000      4962
  65.0000      4589
  70.0000      4979
  75.0000      4814
  80.0000      4571
  85.0000      4584
  90.0000      4546
  95.0000      4835
 100.0000      4692
 105.0000      4413
 110.0000      4311
 115.0000      4599
 120.0000      4487
 125.0000      4403
 130.0000      4329
 135.0000      4155
 140.0000      4274
 145.0000      4398
 150.0000      4324
 155.0000      4341
 160.0000      4595
 165.0000      4411
 170.0000      4349
 175.0000      4938
 180.0000      4685
 185.0000      4510
 190.0000      4662
 195.0000      4767
 200.0000      4770
 205.0000      4725
 210.0000      4831
 215.0000      5126
 220.0000      5148
 225.0000      5116
 230.0000      5031
 235.0000      5305
 240.0000      5367
 245.0000      5450
 250.0000      5500
 255.0000      5427
 260.0000      5502
 265.0000      5226
 270.0000      5202
 275.0000      4891
 280.0000      4982
 285.0000      5255
 290.0000      5284
 295.0000      5694
 300.0000      5165
 305.0000      5414
 310.0000      5354
 315.0000      5064
 320.0000      5195
 325.0000      5339
 330.0000      5706
 335.0000      5800
 340.0000      5431
 345.0000      5711
 350.0000      5491
 355.0000      5266
; (Data for Range number 3)
_DRIVE='PHI'
_STEPTIME=2.000000
_STEPSIZE=5.000000
_STEPMODE='C'
_START=0.000000
_THETA=26.2245
_2THETA=52.449
_KHI=10
_PHI=0.000000
_X=0.000000
_Y=0.000000
_Z=0.000000
_DIVERGENCE=3.000000
_ANTISCATTER=3.000000
_DETECTOR=1
; S.C.
_HV=687
_GAIN=80
_LLD=0.690000
_ULD=1.866000
_DETECTORSLIT='unkn'
_AUX1=0.000000
_AUX2=0.000000
_AUX3=0.000000
_TIMESTARTED=423
_TEMP_RATE=0.000000
_TEMP_DELAY=0.000000
_KV=35
_MA=40
_RANGE_WL=1.788970
_3DPLANE=0
_2THETACOUNTS
   0.0000      5932
   5.0000      6294
  10.0000      6046
  15.0000      5915
  20.0000      5833
  25.0000      5540
  30.0000      5145
  35.0000      5102
  40.0000      5398
  45.0000      5517
  50.0000      5335
  55.0000      4877
  60.0000      5335
  65.0000      4916
  70.0000      4946
  75.0000      4909
  80.0000      4854
  85.0000      5114
  90.0000      5152
  95.0000      5250
 100.0000      4655
 105.0000      5046
 110.0000      4972
 115.0000      4888
 120.0000      4622
 125.0000      4679
 130.0000      4378
 135.0000      4395
 140.0000      4299
 145.0000      4278
 150.0000      4200
 155.0000      4757
 160.0000      4844
 165.0000      5020
 170.0000      4679
 175.0000      4340
 180.0000      4531
 185.0000      4669
 190.0000      4705
 195.0000      4970
 200.0000      5046
 205.0000      5511
 210.0000      4968
 215.0000      4921
 220.0000      5429
 225.0000      6084
 230.0000      6021
 235.0000      5263
 240.0000      5280
 245.0000      5443
 250.0000      5807
 255.0000      5875
 260.0000      6161
 265.0000      6255
 270.0000      6307
 275.0000      6426
 280.0000      6208
 285.0000      6321
 290.0000      6096
 295.0000      6195
 300.0000      6766
 305.0000      6283
 310.0000      6249
 315.0000      6176
 320.0000      6530
 325.0000      6488
 330.0000      6497
 335.0000      6675
 340.0000      6192
 345.0000      6569
 350.0000      5934
 355.0000      6083
; (Data for Range number 4)
_DRIVE='PHI'
_STEPTIME=2.000000
_STEPSIZE=5.000000
_STEPMODE='C'
_START=0.000000
_THETA=26.2245
_2THETA=52.449
_KHI=15
_PHI=0.000000
_X=0.000000
_Y=0.000000
_Z=0.000000
_DIVERGENCE=3.000000
_ANTISCATTER=3.000000
_DETECTOR=1
; S.C.
_HV=687
_GAIN=80
_LLD=0.690000
_ULD=1.866000
_DETECTORSLIT='unkn'
_AUX1=0.000000
_AUX2=0.000000
_AUX3=0.000000
_TIMESTARTED=628
_TEMP_RATE=0.000000
_TEMP_DELAY=0.000000
_KV=35
_MA=40
_RANGE_WL=1.788970
_3DPLANE=0
_2THETACOUNTS
   0.0000      7481
   5.0000      6882
  10.0000      6486
  15.0000      6321
  20.0000      6737
  25.0000      6014
  30.0000      5901
  35.0000      6125
  40.0000      5950
  45.0000      6015
  50.0000      5693
  55.0000      6051
  60.0000      6042
  65.0000      6214
  70.0000      6073
  75.0000      6302
  80.0000      6199
  85.0000      6402
  90.0000      5767
  95.0000      6019
 100.0000      6099
 105.0000      6012
 110.0000      5731
 115.0000      5603
 120.0000      5368
 125.0000      5150
 130.0000      4907
 135.0000      4938
 140.0000      4702
 145.0000      4928
 150.0000      4777
 155.0000      4889
 160.0000      5053
 165.0000      4947
 170.0000      4889
 175.0000      5101
 180.0000      5171
 185.0000      5192
 190.0000      5233
 195.0000      5308
 200.0000      5333
 205.0000      5697
 210.0000      5415
 215.0000      5784
 220.0000      6059
 225.0000      6742
 230.0000      6697
 235.0000      6301
 240.0000      6805
 245.0000      7271
 250.0000      7348
 255.0000      7179
 260.0000      7458
 265.0000      7508
 270.0000      7298
 275.0000      7421
 280.0000      7492
 285.0000      7506
 290.0000      7697
 295.0000      7739
 300.0000      8001
 305.0000      8050
 310.0000      8380
 315.0000      8215
 320.0000      8339
 325.0000      8450
 330.0000      8072
 335.0000      8247
 340.0000      8293
 345.0000      8228
 350.0000      8093
 355.0000      7642
; (Data for Range number 5)
_DRIVE='PHI'
_STEPTIME=2.000000
_STEPSIZE=5.000000
_STEPMODE='C'
_START=0.000000
_THETA=26.2245
_2THETA=52.449
_KHI=20
_PHI=0.000000
_X=0.000000
_Y=0.000000
_Z=0.000000
_DIVERGENCE=3.000000
_ANTISCATTER=3.000000
_DETECTOR=1
; S.C.
_HV=687
_GAIN=80
_LLD=0.690000
_ULD=1.866000
_DETECTORSLIT='unkn'
_AUX1=0.000000
_AUX2=0.000000
_AUX3=0.000000
_TIMESTARTED=833
_TEMP_RATE=0.000000
_TEMP_DELAY=0.000000
_KV=35
_MA=40
_RANGE_WL=1.788970
_3DPLANE=0
_2THETACOUNTS
   0.0000     12069
   5.0000     11680
  10.0000     11401
  15.0000     10502
  20.0000      9272
  25.0000      8586
  30.0000      8095
  35.0000      7996
  40.0000      7672
  45.0000      7388
  50.0000      7787
  55.0000      7309
  60.0000      7299
  65.0000      7675
  70.0000      7700
  75.0000      7918
  80.0000      7603
  85.0000      7520
  90.0000      8382
  95.0000      7811
 100.0000      7955
 105.0000      7431
 110.0000      7058
 115.0000      6899
 120.0000      6598
 125.0000      6642
 130.0000      5981
 135.0000      6191
 140.0000      6309
 145.0000      6695
 150.0000      6835
 155.0000      7241
 160.0000      7046
 165.0000      7289
 170.0000      7531
 175.0000      7447
 180.0000      7740
 185.0000      7657
 190.0000      7371
 195.0000      7500
 200.0000      7873
 205.0000      7378
 210.0000      7156
 215.0000      7657
 220.0000      7665
 225.0000      7724
 230.0000      7734
 235.0000      8752
 240.0000      8391
 245.0000      9025
 250.0000      8368
 255.0000      8973
 260.0000      9243
 265.0000      9463
 270.0000      9390
 275.0000      9051
 280.0000      9013
 285.0000      9663
 290.0000      8950
 295.0000      9598
 300.0000     10073
 305.0000     10284
 310.0000     10278
 315.0000     10634
 320.0000     10917
 325.0000     11658
 330.0000     11532
 335.0000     12480
 340.0000     12212
 345.0000     12261
 350.0000     11942
 355.0000     11842
; (Data for Range number 6)
_DRIVE='PHI'
_STEPTIME=2.000000
_STEPSIZE=5.000000
_STEPMODE='C'
_START=0.000000
_THETA=26.2245
_2THETA=52.449
_KHI=25
_PHI=0.000000
_X=0.000000
_Y=0.000000
_Z=0.000000
_DIVERGENCE=3.000000
_ANTISCATTER=3.000000
_DETECTOR=1
; S.C.
_HV=687
_GAIN=80
_LLD=0.690000
_ULD=1.866000
_DETECTORSLIT='unkn'
_AUX1=0.000000
_AUX2=0.000000
_AUX3=0.000000
_TIMESTARTED=1037
_TEMP_RATE=0.000000
_TEMP_DELAY=0.000000
_KV=35
_MA=40
_RANGE_WL=1.788970
_3DPLANE=0
_2THETACOUNTS
   0.0000     24150
   5.0000     23392
  10.0000     21974
  15.0000     20703
  20.0000     18876
  25.0000     17493
  30.0000     15416
  35.0000     13114
  40.0000     11579
  45.0000     11304
  50.0000     10207
  55.0000      9150
  60.0000      8668
  65.0000      8545
  70.0000      8999
  75.0000      8954
  80.0000      9039
  85.0000      9424
  90.0000      9753
  95.0000      9736
 100.0000      9276
 105.0000      9088
 110.0000      9167
 115.0000      8851
 120.0000      8992
 125.0000      8714
 130.0000      8663
 135.0000      9128
 140.0000     10023
 145.0000     10446
 150.0000     11962
 155.0000     13009
 160.0000     13523
 165.0000     14553
 170.0000     15000
 175.0000     14811
 180.0000     16045
 185.0000     16422
 190.0000     15847
 195.0000     14278
 200.0000     13843
 205.0000     12097
 210.0000     12126
 215.0000     11392
 220.0000     11161
 225.0000     11077
 230.0000     10949
 235.0000     10968
 240.0000     10844
 245.0000     10569
 250.0000     10561
 255.0000     10451
 260.0000     10592
 265.0000     10533
 270.0000     10721
 275.0000     11067
 280.0000     11418
 285.0000     11329
 290.0000     11587
 295.0000     11407
 300.0000     11420
 305.0000     13330
 310.0000     13482
 315.0000     14760
 320.0000     15853
 325.0000     17339
 330.0000     18842
 335.0000     19949
 340.0000     20532
 345.0000     22727
 350.0000     23731
 355.0000     23931
; (Data for Range number 7)
_DRIVE='PHI'
_STEPTIME=2.000000
_STEPSIZE=5.000000
_STEPMODE='C'
_START=0.000000
_THETA=26.2245
_2THETA=52.449
_KHI=30
_PHI=0.000000
_X=0.000000
_Y=0.000000
_Z=0.000000
_DIVERGENCE=3.000000
_ANTISCATTER=3.000000
_DETECTOR=1
; S.C.
_HV=687
_GAIN=80
_LLD=0.690000
_ULD=1.866000
_DETECTORSLIT='unkn'
_AUX1=0.000000
_AUX2=0.000000
_AUX3=0.000000
_TIMESTARTED=1243
_TEMP_RATE=0.000000
_TEMP_DELAY=0.000000
_KV=35
_MA=40
_RANGE_WL=1.788970
_3DPLANE=0
_2THETACOUNTS
   0.0000     29633
   5.0000     30378
  10.0000     29369
  15.0000     29673
  20.0000     27393
  25.0000     26909
  30.0000     24472
  35.0000     22674
  40.0000     20307
  45.0000     16936
  50.0000     14390
  55.0000     12509
  60.0000     11742
  65.0000     11194
  70.0000     10959
  75.0000     10819
  80.0000     10641
  85.0000     11122
  90.0000     11638
  95.0000     11089
 100.0000     11823
 105.0000     11242
 110.0000     11287
 115.0000     11610
 120.0000     11505
 125.0000     12389
 130.0000     12340
 135.0000     13776
 140.0000     15049
 145.0000     17929
 150.0000     20894
 155.0000     23113
 160.0000     25030
 165.0000     26368
 170.0000     27039
 175.0000     27607
 180.0000     28627
 185.0000     27093
 190.0000     27038
 195.0000     25008
 200.0000     23062
 205.0000     22192
 210.0000     19914
 215.0000     17856
 220.0000     16446
 225.0000     15259
 230.0000     13960
 235.0000     13132
 240.0000     12608
 245.0000     12081
 250.0000     12257
 255.0000     12178
 260.0000     12209
 265.0000     11668
 270.0000     11603
 275.0000     12135
 280.0000     12471
 285.0000     13030
 290.0000     13533
 295.0000     14894
 300.0000     15928
 305.0000     16663
 310.0000     18528
 315.0000     19839
 320.0000     22004
 325.0000     24887
 330.0000     25695
 335.0000     26924
 340.0000     28758
 345.0000     28878
 350.0000     28585
 355.0000     29369
; (Data for Range number 8)
_DRIVE='PHI'
_STEPTIME=2.000000
_STEPSIZE=5.000000
_STEPMODE='C'
_START=0.000000
_THETA=26.2245
_2THETA=52.449
_KHI=35
_PHI=0.000000
_X=0.000000
_Y=0.000000
_Z=0.000000
_DIVERGENCE=3.000000
_ANTISCATTER=3.000000
_DETECTOR=1
; S.C.
_HV=687
_GAIN=80
_LLD=0.690000
_ULD=1.866000
_DETECTORSLIT='unkn'
_AUX1=0.000000
_AUX2=0.000000
_AUX3=0.000000
_TIMESTARTED=1447
_TEMP_RATE=0.000000
_TEMP_DELAY=0.000000
_KV=35
_MA=40
_RANGE_WL=1.788970
_3DPLANE=0
_2THETACOUNTS
   0.0000     18185
   5.0000     18865
  10.0000     20294
  15.0000     21725
  20.0000     24376
  25.0000     25149
  30.0000     24753
  35.0000     26430
  40.0000     24422
  45.0000     22759
  50.0000     20103
  55.0000     17572
  60.0000     14722
  65.0000     13297
  70.0000     12052
  75.0000     11855
  80.0000     11603
  85.0000     12031
  90.0000     11565
  95.0000     11903
 100.0000     12108
 105.0000     12786
 110.0000     12274
 115.0000     13611
 120.0000     13918
 125.0000     15533
 130.0000     17444
 135.0000     19282
 140.0000     22115
 145.0000     24093
 150.0000     25487
 155.0000     27438
 160.0000     28196
 165.0000     26176
 170.0000     26056
 175.0000     24746
 180.0000     25303
 185.0000     24790
 190.0000     25198
 195.0000     24857
 200.0000     25721
 205.0000     26056
 210.0000     23369
 215.0000     22727
 220.0000     21384
 225.0000     18304
 230.0000     16813
 235.0000     15140
 240.0000     14068
 245.0000     13274
 250.0000     12805
 255.0000     12192
 260.0000     12156
 265.0000     11550
 270.0000     11419
 275.0000     12361
 280.0000     12467
 285.0000     12971
 290.0000     14786
 295.0000     15010
 300.0000     16683
 305.0000     18523
 310.0000     20423
 315.0000     21951
 320.0000     22323
 325.0000     23910
 330.0000     22960
 335.0000     22040
 340.0000     20144
 345.0000     19633
 350.0000     19245
 355.0000     18882
; (Data for Range number 9)
_DRIVE='PHI'
_STEPTIME=2.000000
_STEPSIZE=5.000000
_STEPMODE='C'
_START=0.000000
_THETA=26.2245
_2THETA=52.449
_KHI=40
_PHI=0.000000
_X=0.000000
_Y=0.000000
_Z=0.000000
_DIVERGENCE=3.000000
_ANTISCATTER=3.000000
_DETECTOR=1
; S.C.
_HV=687
_GAIN=80
_LLD=0.690000
_ULD=1.866000
_DETECTORSLIT='unkn'
_AUX1=0.000000
_AUX2=0.000000
_AUX3=0.000000
_TIMESTARTED=1653
_TEMP_RATE=0.000000
_TEMP_DELAY=0.000000
_KV=35
_MA=40
_RANGE_WL=1.788970
_3DPLANE=0
_2THETACOUNTS
   0.0000      9010
   5.0000     10187
  10.0000     10407
  15.0000     11094
  20.0000     13039
  25.0000     14468
  30.0000     17806
  35.0000     19887
  40.0000     21306
  45.0000     22654
  50.0000     20883
  55.0000     18976
  60.0000     17903
  65.0000     15058
  70.0000     12869
  75.0000     12448
  80.0000     11793
  85.0000     11122
  90.0000     11573
  95.0000     11885
 100.0000     12498
 105.0000     12845
 110.0000     13610
 115.0000     14019
 120.0000     15346
 125.0000     17431
 130.0000     19274
 135.0000     20824
 140.0000     22389
 145.0000     23380
 150.0000     21900
 155.0000     19532
 160.0000     18467
 165.0000     16815
 170.0000     14977
 175.0000     14117
 180.0000     14511
 185.0000     14163
 190.0000     14824
 195.0000     16077
 200.0000     16665
 205.0000     17982
 210.0000     19443
 215.0000     19432
 220.0000     20607
 225.0000     18610
 230.0000     16769
 235.0000     15558
 240.0000     14252
 245.0000     13462
 250.0000     11974
 255.0000     11479
 260.0000     10935
 265.0000     10784
 270.0000     11256
 275.0000     11726
 280.0000     11230
 285.0000     12629
 290.0000     13873
 295.0000     14380
 300.0000     15090
 305.0000     17024
 310.0000     17826
 315.0000     18699
 320.0000     18126
 325.0000     16316
 330.0000     14295
 335.0000     12394
 340.0000     11018
 345.0000     10335
 350.0000      9399
 355.0000      9217
; (Data for Range number 10)
_DRIVE='PHI'
_STEPTIME=2.000000
_STEPSIZE=5.000000
_STEPMODE='C'
_START=0.000000
_THETA=26.2245
_2THETA=52.449
_KHI=45
_PHI=0.000000
_X=0.000000
_Y=0.000000
_Z=0.000000
_DIVERGENCE=3.000000
_ANTISCATTER=3.000000
_DETECTOR=1
; S.C.
_HV=687
_GAIN=80
_LLD=0.690000
_ULD=1.866000
_DETECTORSLIT='unkn'
_AUX1=0.000000
_AUX2=0.000000
_AUX3=0.000000
_TIMESTARTED=1858
_TEMP_RATE=0.000000
_TEMP_DELAY=0.000000
_KV=35
_MA=40
_RANGE_WL=1.788970
_3DPLANE=0
_2THETACOUNTS
   0.0000      6179
   5.0000      6648
  10.0000      6514
  15.0000      6858
  20.0000      7620
  25.0000      8892
  30.0000     10500
  35.0000     12324
  40.0000     14921
  45.0000     16231
  50.0000     16990
  55.0000     17331
  60.0000     15878
  65.0000     14143
  70.0000     13200
  75.0000     11350
  80.0000     11066
  85.0000     10153
  90.0000     10616
  95.0000     10244
 100.0000     11024
 105.0000     11569
 110.0000     12538
 115.0000     14097
 120.0000     14418
 125.0000     16270
 130.0000     17007
 135.0000     17343
 140.0000     17391
 145.0000     15878
 150.0000     14085
 155.0000     12441
 160.0000     11271
 165.0000      9934
 170.0000      9401
 175.0000      9001
 180.0000      8607
 185.0000      8835
 190.0000      9148
 195.0000      9405
 200.0000      9977
 205.0000     10705
 210.0000     11731
 215.0000     12825
 220.0000     13598
 225.0000     13400
 230.0000     13590
 235.0000     12897
 240.0000     12089
 245.0000     11826
 250.0000     10785
 255.0000     10270
 260.0000     10163
 265.0000      9765
 270.0000     10028
 275.0000     10072
 280.0000     10391
 285.0000     10968
 290.0000     11626
 295.0000     12158
 300.0000     12800
 305.0000     13498
 310.0000     13163
 315.0000     12226
 320.0000     11360
 325.0000     10226
 330.0000      8900
 335.0000      8063
 340.0000      7211
 345.0000      6909
 350.0000      7147
 355.0000      6741
; (Data for Range number 11)
_DRIVE='PHI'
_STEPTIME=2.000000
_STEPSIZE=5.000000
_STEPMODE='C'
_START=0.000000
_THETA=26.2245
_2THETA=52.449
_KHI=50
_PHI=0.000000
_X=0.000000
_Y=0.000000
_Z=0.000000
_DIVERGENCE=3.000000
_ANTISCATTER=3.000000
_DETECTOR=1
; S.C.
_HV=687
_GAIN=80
_LLD=0.690000
_ULD=1.866000
_DETECTORSLIT='unkn'
_AUX1=0.000000
_AUX2=0.000000
_AUX3=0.000000
_TIMESTARTED=2063
_TEMP_RATE=0.000000
_TEMP_DELAY=0.000000
_KV=35
_MA=40
_RANGE_WL=1.788970
_3DPLANE=0
_2THETACOUNTS
   0.0000      5535
   5.0000      5369
  10.0000      5506
  15.0000      5553
  20.0000      5832
  25.0000      6271
  30.0000      7324
  35.0000      8130
  40.0000      9594
  45.0000     10706
  50.0000     12460
  55.0000     13087
  60.0000     13197
  65.0000     12464
  70.0000     11874
  75.0000     10544
  80.0000      9567
  85.0000      9565
  90.0000      8972
  95.0000      9341
 100.0000      9862
 105.0000     10640
 110.0000     11906
 115.0000     11595
 120.0000     12567
 125.0000     12895
 130.0000     12563
 135.0000     12774
 140.0000     11694
 145.0000     10417
 150.0000      9954
 155.0000      9101
 160.0000      7756
 165.0000      7435
 170.0000      7137
 175.0000      6811
 180.0000      6700
 185.0000      6545
 190.0000      6466
 195.0000      6788
 200.0000      7119
 205.0000      7413
 210.0000      7801
 215.0000      8196
 220.0000      9128
 225.0000      9838
 230.0000      9923
 235.0000      9876
 240.0000     10025
 245.0000     10014
 250.0000      9561
 255.0000      9351
 260.0000      9368
 265.0000      9083
 270.0000      8963
 275.0000      9083
 280.0000      9325
 285.0000      9441
 290.0000      9958
 295.0000     10232
 300.0000     10132
 305.0000     10462
 310.0000     10082
 315.0000      9194
 320.0000      8546
 325.0000      7801
 330.0000      7082
 335.0000      6830
 340.0000      6258
 345.0000      5941
 350.0000      5628
 355.0000      5608
; (Data for Range number 12)
_DRIVE='PHI'
_STEPTIME=2.000000
_STEPSIZE=5.000000
_STEPMODE='C'
_START=0.000000
_THETA=26.2245
_2THETA=52.449
_KHI=55
_PHI=0.000000
_X=0.000000
_Y=0.000000
_Z=0.000000
_DIVERGENCE=3.000000
_ANTISCATTER=3.000000
_DETECTOR=1
; S.C.
_HV=687
_GAIN=80
_LLD=0.690000
_ULD=1.866000
_DETECTORSLIT='unkn'
_AUX1=0.000000
_AUX2=0.000000
_AUX3=0.000000
_TIMESTARTED=2267
_TEMP_RATE=0.000000
_TEMP_DELAY=0.000000
_KV=35
_MA=40
_RANGE_WL=1.788970
_3DPLANE=0
_2THETACOUNTS
   0.0000      4794
   5.0000      4747
  10.0000      5016
  15.0000      5411
  20.0000      5305
  25.0000      5562
  30.0000      6162
  35.0000      6504
  40.0000      7161
  45.0000      7924
  50.0000      9318
  55.0000      9684
  60.0000     10680
  65.0000     10591
  70.0000     10396
  75.0000      9243
  80.0000      8628
  85.0000      8109
  90.0000      8190
  95.0000      8411
 100.0000      8869
 105.0000      9460
 110.0000      9631
 115.0000     10102
 120.0000      9902
 125.0000      9673
 130.0000      9724
 135.0000      9779
 140.0000      8753
 145.0000      8170
 150.0000      7463
 155.0000      6602
 160.0000      6208
 165.0000      5822
 170.0000      5764
 175.0000      5247
 180.0000      5083
 185.0000      5275
 190.0000      5341
 195.0000      5570
 200.0000      5967
 205.0000      6400
 210.0000      6735
 215.0000      6880
 220.0000      7219
 225.0000      7516
 230.0000      7904
 235.0000      8367
 240.0000      8726
 245.0000      8279
 250.0000      8531
 255.0000      8361
 260.0000      8394
 265.0000      8466
 270.0000      8554
 275.0000      8565
 280.0000      8513
 285.0000      8467
 290.0000      8688
 295.0000      8991
 300.0000      8815
 305.0000      8345
 310.0000      8326
 315.0000      7793
 320.0000      7748
 325.0000      7069
 330.0000      6591
 335.0000      6333
 340.0000      5857
 345.0000      5538
 350.0000      5111
 355.0000      5013
; (Data for Range number 13)
_DRIVE='PHI'
_STEPTIME=2.000000
_STEPSIZE=5.000000
_STEPMODE='C'
_START=0.000000
_THETA=26.2245
_2THETA=52.449
_KHI=60
_PHI=0.000000
_X=0.000000
_Y=0.000000
_Z=0.000000
_DIVERGENCE=3.000000
_ANTISCATTER=3.000000
_DETECTOR=1
; S.C.
_HV=687
_GAIN=80
_LLD=0.690000
_ULD=1.866000
_DETECTORSLIT='unkn'
_AUX1=0.000000
_AUX2=0.000000
_AUX3=0.000000
_TIMESTARTED=2473
_TEMP_RATE=0.000000
_TEMP_DELAY=0.000000
_KV=35
_MA=40
_RANGE_WL=1.788970
_3DPLANE=0
_2THETACOUNTS
   0.0000      4500
   5.0000      4539
  10.0000      4624
  15.0000      4790
  20.0000      4928
  25.0000      5374
  30.0000      5431
  35.0000      5937
  40.0000      6042
  45.0000      6445
  50.0000      7028
  55.0000      7672
  60.0000      8446
  65.0000      8523
  70.0000      8583
  75.0000      7898
  80.0000      7296
  85.0000      7680
  90.0000      7641
  95.0000      7501
 100.0000      7802
 105.0000      7931
 110.0000      7675
 115.0000      8062
 120.0000      7824
 125.0000      7713
 130.0000      8012
 135.0000      7475
 140.0000      7014
 145.0000      6814
 150.0000      6171
 155.0000      5461
 160.0000      5337
 165.0000      4775
 170.0000      4712
 175.0000      4523
 180.0000      4404
 185.0000      4474
 190.0000      4815
 195.0000      4967
 200.0000      5461
 205.0000      6134
 210.0000      6292
 215.0000      6456
 220.0000      6529
 225.0000      6680
 230.0000      7137
 235.0000      7416
 240.0000      7508
 245.0000      7697
 250.0000      7683
 255.0000      7900
 260.0000      8038
 265.0000      7958
 270.0000      8170
 275.0000      8029
 280.0000      7588
 285.0000      7698
 290.0000      8130
 295.0000      7978
 300.0000      7668
 305.0000      7815
 310.0000      7480
 315.0000      7245
 320.0000      7106
 325.0000      6793
 330.0000      6636
 335.0000      6022
 340.0000      5574
 345.0000      5227
 350.0000      4863
 355.0000      4730
; (Data for Range number 14)
_DRIVE='PHI'
_STEPTIME=2.000000
_STEPSIZE=5.000000
_STEPMODE='C'
_START=0.000000
_THETA=26.2245
_2THETA=52.449
_KHI=65
_PHI=0.000000
_X=0.000000
_Y=0.000000
_Z=0.000000
_DIVERGENCE=3.000000
_ANTISCATTER=3.000000
_DETECTOR=1
; S.C.
_HV=687
_GAIN=80
_LLD=0.690000
_ULD=1.866000
_DETECTORSLIT='unkn'
_AUX1=0.000000
_AUX2=0.000000
_AUX3=0.000000
_TIMESTARTED=2678
_TEMP_RATE=0.000000
_TEMP_DELAY=0.000000
_KV=35
_MA=40
_RANGE_WL=1.788970
_3DPLANE=0
_2THETACOUNTS
   0.0000      4876
   5.0000      4588
  10.0000      4663
  15.0000      4527
  20.0000      4865
  25.0000      5117
  30.0000      5534
  35.0000      5554
  40.0000      5244
  45.0000      5571
  50.0000      5607
  55.0000      6436
  60.0000      6628
  65.0000      7204
  70.0000      7127
  75.0000      6712
  80.0000      6694
  85.0000      6682
  90.0000      6775
  95.0000      6709
 100.0000      6711
 105.0000      6699
 110.0000      6852
 115.0000      6886
 120.0000      6587
 125.0000      6502
 130.0000      6474
 135.0000      6104
 140.0000      5928
 145.0000      5828
 150.0000      5226
 155.0000      4727
 160.0000      4484
 165.0000      4229
 170.0000      4059
 175.0000      3968
 180.0000      3882
 185.0000      3911
 190.0000      4162
 195.0000      4800
 200.0000      5370
 205.0000      5681
 210.0000      6175
 215.0000      6472
 220.0000      6375
 225.0000      6375
 230.0000      6478
 235.0000      7021
 240.0000      7154
 245.0000      7152
 250.0000      7285
 255.0000      7235
 260.0000      7163
 265.0000      7598
 270.0000      7644
 275.0000      7490
 280.0000      7351
 285.0000      7278
 290.0000      7040
 295.0000      7526
 300.0000      7353
 305.0000      7276
 310.0000      7337
 315.0000      6937
 320.0000      6876
 325.0000      7031
 330.0000      6230
 335.0000      6098
 340.0000      5577
 345.0000      5207
 350.0000      4722
 355.0000      4696
; (Data for Range number 15)
_DRIVE='PHI'
_STEPTIME=2.000000
_STEPSIZE=5.000000
_STEPMODE='C'
_START=0.000000
_THETA=26.2245
_2THETA=52.449
_KHI=70
_PHI=0.000000
_X=0.000000
_Y=0.000000
_Z=0.000000
_DIVERGENCE=3.000000
_ANTISCATTER=3.000000
_DETECTOR=1
; S.C.
_HV=687
_GAIN=80
_LLD=0.690000
_ULD=1.866000
_DETECTORSLIT='unkn'
_AUX1=0.000000
_AUX2=0.000000
_AUX3=0.000000
_TIMESTARTED=2883
_TEMP_RATE=0.000000
_TEMP_DELAY=0.000000
_KV=35
_MA=40
_RANGE_WL=1.788970
_3DPLANE=0
_2THETACOUNTS
   0.0000      5005
   5.0000      4764
  10.0000      4634
  15.0000      4579
  20.0000      4856
  25.0000      4631
  30.0000      4893
  35.0000      4953
  40.0000      4795
  45.0000      4698
  50.0000      4788
  55.0000      5248
  60.0000      5674
  65.0000      5982
  70.0000      6033
  75.0000      5906
  80.0000      5674
  85.0000      5877
  90.0000      5800
  95.0000      5951
 100.0000      6075
 105.0000      6035
 110.0000      5959
 115.0000      5903
 120.0000      5593
 125.0000      5727
 130.0000      5490
 135.0000      5409
 140.0000      4989
 145.0000      4789
 150.0000      4380
 155.0000      4030
 160.0000      3768
 165.0000      3691
 170.0000      3609
 175.0000      3452
 180.0000      3489
 185.0000      3683
 190.0000      4060
 195.0000      4643
 200.0000      5268
 205.0000      5814
 210.0000      6065
 215.0000      6318
 220.0000      6261
 225.0000      6066
 230.0000      6050
 235.0000      6246
 240.0000      6369
 245.0000      6475
 250.0000      6437
 255.0000      6309
 260.0000      6541
 265.0000      6833
 270.0000      7045
 275.0000      6740
 280.0000      6582
 285.0000      6494
 290.0000      6876
 295.0000      6665
 300.0000      6838
 305.0000      6854
 310.0000      6788
 315.0000      6876
 320.0000      6881
 325.0000      6783
 330.0000      6660
 335.0000      6402
 340.0000      5616
 345.0000      5439
 350.0000      5045
 355.0000      4941
; (Data for Range number 16)
_DRIVE='PHI'
_STEPTIME=2.000000
_STEPSIZE=5.000000
_STEPMODE='C'
_START=0.000000
_THETA=26.2245
_2THETA=52.449
_KHI=75
_PHI=0.000000
_X=0.000000
_Y=0.000000
_Z=0.000000
_DIVERGENCE=3.000000
_ANTISCATTER=3.000000
_DETECTOR=1
; S.C.
_HV=687
_GAIN=80
_LLD=0.690000
_ULD=1.866000
_DETECTORSLIT='unkn'
_AUX1=0.000000
_AUX2=0.000000
_AUX3=0.000000
_TIMESTARTED=3087
_TEMP_RATE=0.000000
_TEMP_DELAY=0.000000
_KV=35
_MA=40
_RANGE_WL=1.788970
_3DPLANE=0
_2THETACOUNTS
   0.0000      5214
   5.0000      5146
  10.0000      5034
  15.0000      4721
  20.0000      4639
  25.0000      4459
  30.0000      4525
  35.0000      4553
  40.0000      4378
  45.0000      4155
  50.0000      4309
  55.0000      4308
  60.0000      4471
  65.0000      4781
  70.0000      5037
  75.0000      5032
  80.0000      4829
  85.0000      4886
  90.0000      5074
  95.0000      5174
 100.0000      5412
 105.0000      5309
 110.0000      5132
 115.0000      4935
 120.0000      4942
 125.0000      4672
 130.0000      4630
 135.0000      4419
 140.0000      4216
 145.0000      4028
 150.0000      3657
 155.0000      3415
 160.0000      3288
 165.0000      3229
 170.0000      3162
 175.0000      3028
 180.0000      3106
 185.0000      3504
 190.0000      3983
 195.0000      4637
 200.0000      5503
 205.0000      5875
 210.0000      5924
 215.0000      5876
 220.0000      5638
 225.0000      5478
 230.0000      5385
 235.0000      5478
 240.0000      5498
 245.0000      5324
 250.0000      5591
 255.0000      5433
 260.0000      5364
 265.0000      5624
 270.0000      5629
 275.0000      5425
 280.0000      5561
 285.0000      5551
 290.0000      5560
 295.0000      5717
 300.0000      5744
 305.0000      5878
 310.0000      6002
 315.0000      6160
 320.0000      6250
 325.0000      6283
 330.0000      6432
 335.0000      6059
 340.0000      5743
 345.0000      5404
 350.0000      5438
 355.0000      5194
; (Data for Range number 17)
_DRIVE='PHI'
_STEPTIME=2.000000
_STEPSIZE=5.000000
_STEPMODE='C'
_START=0.000000
_THETA=26.2245
_2THETA=52.449
_KHI=80
_PHI=0.000000
_X=0.000000
_Y=0.000000
_Z=0.000000
_DIVERGENCE=3.000000
_ANTISCATTER=3.000000
_DETECTOR=1
; S.C.
_HV=687
_GAIN=80
_LLD=0.690000
_ULD=1.866000
_DETECTORSLIT='unkn'
_AUX1=0.000000
_AUX2=0.000000
_AUX3=0.000000
_TIMESTARTED=3292
_TEMP_RATE=0.000000
_TEMP_DELAY=0.000000
_KV=35
_MA=40
_RANGE_WL=1.788970
_3DPLANE=0
_2THETACOUNTS
   0.0000      4816
   5.0000      4878
  10.0000      4748
  15.0000      4416
  20.0000      4197
  25.0000      4042
  30.0000      3644
  35.0000      3584
  40.0000      3359
  45.0000      3303
  50.0000      3245
  55.0000      3234
  60.0000      3372
  65.0000      3673
  70.0000      3784
  75.0000      3839
  80.0000      3644
  85.0000      3724
  90.0000      3954
  95.0000      4164
 100.0000      4267
 105.0000      4326
 110.0000      4101
 115.0000      3947
 120.0000      3700
 125.0000      3491
 130.0000      3375
 135.0000      3424
 140.0000      3152
 145.0000      2959
 150.0000      2818
 155.0000      2763
 160.0000      2574
 165.0000      2413
 170.0000      2384
 175.0000      2407
 180.0000      2704
 185.0000      3149
 190.0000      3756
 195.0000      4415
 200.0000      4608
 205.0000      4667
 210.0000      4698
 215.0000      4422
 220.0000      4212
 225.0000      4024
 230.0000      3672
 235.0000      3647
 240.0000      3762
 245.0000      3614
 250.0000      3610
 255.0000      3695
 260.0000      3667
 265.0000      3681
 270.0000      3774
 275.0000      3780
 280.0000      3710
 285.0000      3760
 290.0000      3756
 295.0000      3962
 300.0000      3801
 305.0000      3893
 310.0000      4061
 315.0000      4162
 320.0000      4317
 325.0000      4491
 330.0000      4591
 335.0000      4438
 340.0000      4578
 345.0000      4583
 350.0000      4594
 355.0000      4601
; (Data for Range number 18)
_DRIVE='PHI'
_STEPTIME=20
_STEPSIZE=5.000000
_STEPMODE='S'
_START=0.000000
_THETA=23.5
_2THETA=47
_KHI=0.000000
_PHI=0.000000
_X=0.000000
_Y=0.000000
_Z=0.000000
_DIVERGENCE=3.000000
_ANTISCATTER=3.000000
_DETECTOR=1
; S.C.
_HV=687
_GAIN=80
_LLD=0.690000
_ULD=1.866000
_DETECTORSLIT='unkn'
_AUX1=0.000000
_AUX2=0.000000
_AUX3=0.000000
_TIMESTARTED=3494
_TEMP_RATE=0.000000
_TEMP_DELAY=0.000000
_KV=35
_MA=40
_RANGE_WL=1.788970
_3DPLANE=0
_2THETACOUNTS
   0.0000      6903
; (Data for Range number 19)
_DRIVE='PHI'
_STEPTIME=20
_STEPSIZE=5.000000
_STEPMODE='S'
_START=0.000000
_THETA=23.5
_2THETA=47
_KHI=5.000000
_PHI=0.000000
_X=0.000000
_Y=0.000000
_Z=0.000000
_DIVERGENCE=3.000000
_ANTISCATTER=3.000000
_DETECTOR=1
; S.C.
_HV=687
_GAIN=80
_LLD=0.690000
_ULD=1.866000
_DETECTORSLIT='unkn'
_AUX1=0.000000
_AUX2=0.000000
_AUX3=0.000000
_TIMESTARTED=3520
_TEMP_RATE=0.000000
_TEMP_DELAY=0.000000
_KV=35
_MA=40
_RANGE_WL=1.788970
_3DPLANE=0
_2THETACOUNTS
   0.0000      6736
; (Data for Range number 20)
_DRIVE='PHI'
_STEPTIME=20
_STEPSIZE=5.000000
_STEPMODE='S'
_START=0.000000
_THETA=23.5
_2THETA=47
_KHI=10
_PHI=0.000000
_X=0.000000
_Y=0.000000
_Z=0.000000
_DIVERGENCE=3.000000
_ANTISCATTER=3.000000
_DETECTOR=1
; S.C.
_HV=687
_GAIN=80
_LLD=0.690000
_ULD=1.866000
_DETECTORSLIT='unkn'
_AUX1=0.000000
_AUX2=0.000000
_AUX3=0.000000
_TIMESTARTED=3544
_TEMP_RATE=0.000000
_TEMP_DELAY=0.000000
_KV=35
_MA=40
_RANGE_WL=1.788970
_3DPLANE=0
_2THETACOUNTS
   0.0000      6964
; (Data for Range number 21)
_DRIVE='PHI'
_STEPTIME=20
_STEPSIZE=5.000000
_STEPMODE='S'
_START=0.000000
_THETA=23.5
_2THETA=47
_KHI=15
_PHI=0.000000
_X=0.000000
_Y=0.000000
_Z=0.000000
_DIVERGENCE=3.000000
_ANTISCATTER=3.000000
_DETECTOR=1
; S.C.
_HV=687
_GAIN=80
_LLD=0.690000
_ULD=1.866000
_DETECTORSLIT='unkn'
_AUX1=0.000000
_AUX2=0.000000
_AUX3=0.000000
_TIMESTARTED=3569
_TEMP_RATE=0.000000
_TEMP_DELAY=0.000000
_KV=35
_MA=40
_RANGE_WL=1.788970
_3DPLANE=0
_2THETACOUNTS
   0.0000      7008
; (Data for Range number 22)
_DRIVE='PHI'
_STEPTIME=20
_STEPSIZE=5.000000
_STEPMODE='S'
_START=0.000000
_THETA=23.5
_2THETA=47
_KHI=20
_PHI=0.000000
_X=0.000000
_Y=0.000000
_Z=0.000000
_DIVERGENCE=3.000000
_ANTISCATTER=3.000000
_DETECTOR=1
; S.C.
_HV=687
_GAIN=80
_LLD=0.690000
_ULD=1.866000
_DETECTORSLIT='unkn'
_AUX1=0.000000
_AUX2=0.000000
_AUX3=0.000000
_TIMESTARTED=3594
_TEMP_RATE=0.000000
_TEMP_DELAY=0.000000
_KV=35
_MA=40
_RANGE_WL=1.788970
_3DPLANE=0
_2THETACOUNTS
   0.0000      6970
; (Data for Range number 23)
_DRIVE='PHI'
_STEPTIME=20
_STEPSIZE=5.000000
_STEPMODE='S'
_START=0.000000
_THETA=23.5
_2THETA=47
_KHI=25
_PHI=0.000000
_X=0.000000
_Y=0.000000
_Z=0.000000
_DIVERGENCE=3.000000
_ANTISCATTER=3.000000
_DETECTOR=1
; S.C.
_HV=687
_GAIN=80
_LLD=0.690000
_ULD=1.866000
_DETECTORSLIT='unkn'
_AUX1=0.000000
_AUX2=0.000000
_AUX3=0.000000
_TIMESTARTED=3619
_TEMP_RATE=0.000000
_TEMP_DELAY=0.000000
_KV=35
_MA=40
_RANGE_WL=1.788970
_3DPLANE=0
_2THETACOUNTS
   0.0000      6997
; (Data for Range number 24)
_DRIVE='PHI'
_STEPTIME=20
_STEPSIZE=5.000000
_STEPMODE='S'
_START=0.000000
_THETA=23.5
_2THETA=47
_KHI=30
_PHI=0.000000
_X=0.000000
_Y=0.000000
_Z=0.000000
_DIVERGENCE=3.000000
_ANTISCATTER=3.000000
_DETECTOR=1
; S.C.
_HV=687
_GAIN=80
_LLD=0.690000
_ULD=1.866000
_DETECTORSLIT='unkn'
_AUX1=0.000000
_AUX2=0.000000
_AUX3=0.000000
_TIMESTARTED=3643
_TEMP_RATE=0.000000
_TEMP_DELAY=0.000000
_KV=35
_MA=40
_RANGE_WL=1.788970
_3DPLANE=0
_2THETACOUNTS
   0.0000      7091
; (Data for Range number 25)
_DRIVE='PHI'
_STEPTIME=20
_STEPSIZE=5.000000
_STEPMODE='S'
_START=0.000000
_THETA=23.5
_2THETA=47
_KHI=35
_PHI=0.000000
_X=0.000000
_Y=0.000000
_Z=0.000000
_DIVERGENCE=3.000000
_ANTISCATTER=3.000000
_DETECTOR=1
; S.C.
_HV=687
_GAIN=80
_LLD=0.690000
_ULD=1.866000
_DETECTORSLIT='unkn'
_AUX1=0.000000
_AUX2=0.000000
_AUX3=0.000000
_TIMESTARTED=3668
_TEMP_RATE=0.000000
_TEMP_DELAY=0.000000
_KV=35
_MA=40
_RANGE_WL=1.788970
_3DPLANE=0
_2THETACOUNTS
   0.0000      7042
; (Data for Range number 26)
_DRIVE='PHI'
_STEPTIME=20
_STEPSIZE=5.000000
_STEPMODE='S'
_START=0.000000
_THETA=23.5
_2THETA=47
_KHI=40
_PHI=0.000000
_X=0.000000
_Y=0.000000
_Z=0.000000
_DIVERGENCE=3.000000
_ANTISCATTER=3.000000
_DETECTOR=1
; S.C.
_HV=687
_GAIN=80
_LLD=0.690000
_ULD=1.866000
_DETECTORSLIT='unkn'
_AUX1=0.000000
_AUX2=0.000000
_AUX3=0.000000
_TIMESTARTED=3693
_TEMP_RATE=0.000000
_TEMP_DELAY=0.000000
_KV=35
_MA=40
_RANGE_WL=1.788970
_3DPLANE=0
_2THETACOUNTS
   0.0000      6876
; (Data for Range number 27)
_DRIVE='PHI'
_STEPTIME=20
_STEPSIZE=5.000000
_STEPMODE='S'
_START=0.000000
_THETA=23.5
_2THETA=47
_KHI=45
_PHI=0.000000
_X=0.000000
_Y=0.000000
_Z=0.000000
_DIVERGENCE=3.000000
_ANTISCATTER=3.000000
_DETECTOR=1
; S.C.
_HV=687
_GAIN=80
_LLD=0.690000
_ULD=1.866000
_DETECTORSLIT='unkn'
_AUX1=0.000000
_AUX2=0.000000
_AUX3=0.000000
_TIMESTARTED=3718
_TEMP_RATE=0.000000
_TEMP_DELAY=0.000000
_KV=35
_MA=40
_RANGE_WL=1.788970
_3DPLANE=0
_2THETACOUNTS
   0.0000      6802
; (Data for Range number 28)
_DRIVE='PHI'
_STEPTIME=20
_STEPSIZE=5.000000
_STEPMODE='S'
_START=0.000000
_THETA=23.5
_2THETA=47
_KHI=50
_PHI=0.000000
_X=0.000000
_Y=0.000000
_Z=0.000000
_DIVERGENCE=3.000000
_ANTISCATTER=3.000000
_DETECTOR=1
; S.C.
_HV=687
_GAIN=80
_LLD=0.690000
_ULD=1.866000
_DETECTORSLIT='unkn'
_AUX1=0.000000
_AUX2=0.000000
_AUX3=0.000000
_TIMESTARTED=3743
_TEMP_RATE=0.000000
_TEMP_DELAY=0.000000
_KV=35
_MA=40
_RANGE_WL=1.788970
_3DPLANE=0
_2THETACOUNTS
   0.0000      6893
; (Data for Range number 29)
_DRIVE='PHI'
_STEPTIME=20
_STEPSIZE=5.000000
_STEPMODE='S'
_START=0.000000
_THETA=23.5
_2THETA=47
_KHI=55
_PHI=0.000000
_X=0.000000
_Y=0.000000
_Z=0.000000
_DIVERGENCE=3.000000
_ANTISCATTER=3.000000
_DETECTOR=1
; S.C.
_HV=687
_GAIN=80
_LLD=0.690000
_ULD=1.866000
_DETECTORSLIT='unkn'
_AUX1=0.000000
_AUX2=0.000000
_AUX3=0.000000
_TIMESTARTED=3768
_TEMP_RATE=0.000000
_TEMP_DELAY=0.000000
_KV=35
_MA=40
_RANGE_WL=1.788970
_3DPLANE=0
_2THETACOUNTS
   0.0000      6956
; (Data for Range number 30)
_DRIVE='PHI'
_STEPTIME=20
_STEPSIZE=5.000000
_STEPMODE='S'
_START=0.000000
_THETA=23.5
_2THETA=47
_KHI=60
_PHI=0.000000
_X=0.000000
_Y=0.000000
_Z=0.000000
_DIVERGENCE=3.000000
_ANTISCATTER=3.000000
_DETECTOR=1
; S.C.
_HV=687
_GAIN=80
_LLD=0.690000
_ULD=1.866000
_DETECTORSLIT='unkn'
_AUX1=0.000000
_AUX2=0.000000
_AUX3=0.000000
_TIMESTARTED=3793
_TEMP_RATE=0.000000
_TEMP_DELAY=0.000000
_KV=35
_MA=40
_RANGE_WL=1.788970
_3DPLANE=0
_2THETACOUNTS
   0.0000      6790
; (Data for Range number 31)
_DRIVE='PHI'
_STEPTIME=20
_STEPSIZE=5.000000
_STEPMODE='S'
_START=0.000000
_THETA=23.5
_2THETA=47
_KHI=65
_PHI=0.000000
_X=0.000000
_Y=0.000000
_Z=0.000000
_DIVERGENCE=3.000000
_ANTISCATTER=3.000000
_DETECTOR=1
; S.C.
_HV=687
_GAIN=80
[...]
  80.0000      2201
  85.0000      2221
  90.0000      2325
  95.0000      2295
 100.0000      2202
 105.0000      2215
 110.0000      2304
 115.0000      2197
 120.0000      2389
 125.0000      2333
 130.0000      2361
 135.0000      2341
 140.0000      2254
 145.0000      2242
 150.0000      2134
 155.0000      2025
 160.0000      2062
 165.0000      2050
 170.0000      2055
 175.0000      2039
 180.0000      1995
 185.0000      1941
 190.0000      1894
 195.0000      1935
 200.0000      1872
 205.0000      1906
 210.0000      2070
 215.0000      2152
 220.0000      2307
 225.0000      2238
 230.0000      2270
 235.0000      2398
 240.0000      2402
 245.0000      2332
 250.0000      2328
 255.0000      2302
 260.0000      2245
 265.0000      2260
 270.0000      2242
 275.0000      2343
 280.0000      2332
 285.0000      2353
 290.0000      2457
 295.0000      2480
 300.0000      2493
 305.0000      2515
 310.0000      2328
 315.0000      2341
 320.0000      2369
 325.0000      2284
 330.0000      2150
 335.0000      2040
 340.0000      1919
 345.0000      1896
 350.0000      1862
 355.0000      1833
; (Data for Range number 119)
_DRIVE='PHI'
_STEPTIME=2.000000
_STEPSIZE=5.000000
_STEPMODE='C'
_START=0.000000
_THETA=49.899
_2THETA=99.798
_KHI=80
_PHI=0.000000
_X=0.000000
_Y=0.000000
_Z=0.000000
_DIVERGENCE=3.000000
_ANTISCATTER=3.000000
_DETECTOR=1
; S.C.
_HV=687
_GAIN=80
_LLD=0.690000
_ULD=1.866000
_DETECTORSLIT='unkn'
_AUX1=0.000000
_AUX2=0.000000
_AUX3=0.000000
_TIMESTARTED=12023
_TEMP_RATE=0.000000
_TEMP_DELAY=0.000000
_KV=35
_MA=40
_RANGE_WL=1.788970
_3DPLANE=0
_2THETACOUNTS
   0.0000      1727
   5.0000      1719
  10.0000      1582
  15.0000      1551
  20.0000      1500
  25.0000      1571
  30.0000      1669
  35.0000      1768
  40.0000      1788
  45.0000      1831
  50.0000      1724
  55.0000      1682
  60.0000      1675
  65.0000      1693
  70.0000      1651
  75.0000      1703
  80.0000      1723
  85.0000      1721
  90.0000      1722
  95.0000      1661
 100.0000      1541
 105.0000      1516
 110.0000      1598
 115.0000      1594
 120.0000      1689
 125.0000      1615
 130.0000      1642
 135.0000      1570
 140.0000      1532
 145.0000      1504
 150.0000      1440
 155.0000      1398
 160.0000      1441
 165.0000      1415
 170.0000      1576
 175.0000      1534
 180.0000      1607
 185.0000      1583
 190.0000      1523
 195.0000      1502
 200.0000      1446
 205.0000      1544
 210.0000      1595
 215.0000      1634
 220.0000      1592
 225.0000      1641
 230.0000      1789
 235.0000      1701
 240.0000      1683
 245.0000      1621
 250.0000      1796
 255.0000      1713
 260.0000      1652
 265.0000      1787
 270.0000      1748
 275.0000      1738
 280.0000      1716
 285.0000      1785
 290.0000      1811
 295.0000      1838
 300.0000      1743
 305.0000      1771
 310.0000      1615
 315.0000      1693
 320.0000      1786
 325.0000      1686
 330.0000      1691
 335.0000      1718
 340.0000      1737
 345.0000      1730
 350.0000      1728
 355.0000      1710
; (Data for Range number 120)
_DRIVE='PHI'
_STEPTIME=20
_STEPSIZE=5.000000
_STEPMODE='S'
_START=0.000000
_THETA=47.5
_2THETA=95
_KHI=0.000000
_PHI=0.000000
_X=0.000000
_Y=0.000000
_Z=0.000000
_DIVERGENCE=3.000000
_ANTISCATTER=3.000000
_DETECTOR=1
; S.C.
_HV=687
_GAIN=80
_LLD=0.690000
_ULD=1.866000
_DETECTORSLIT='unkn'
_AUX1=0.000000
_AUX2=0.000000
_AUX3=0.000000
_TIMESTARTED=12225
_TEMP_RATE=0.000000
_TEMP_DELAY=0.000000
_KV=35
_MA=40
_RANGE_WL=1.788970
_3DPLANE=0
_2THETACOUNTS
   0.0000      6554
; (Data for Range number 121)
_DRIVE='PHI'
_STEPTIME=20
_STEPSIZE=5.000000
_STEPMODE='S'
_START=0.000000
_THETA=47.5
_2THETA=95
_KHI=5.000000
_PHI=0.000000
_X=0.000000
_Y=0.000000
_Z=0.000000
_DIVERGENCE=3.000000
_ANTISCATTER=3.000000
_DETECTOR=1
; S.C.
_HV=687
_GAIN=80
_LLD=0.690000
_ULD=1.866000
_DETECTORSLIT='unkn'
_AUX1=0.000000
_AUX2=0.000000
_AUX3=0.000000
_TIMESTARTED=12249
_TEMP_RATE=0.000000
_TEMP_DELAY=0.000000
_KV=35
_MA=40
_RANGE_WL=1.788970
_3DPLANE=0
_2THETACOUNTS
   0.0000      6637
; (Data for Range number 122)
_DRIVE='PHI'
_STEPTIME=20
_STEPSIZE=5.000000
_STEPMODE='S'
_START=0.000000
_THETA=47.5
_2THETA=95
_KHI=10
_PHI=0.000000
_X=0.000000
_Y=0.000000
_Z=0.000000
_DIVERGENCE=3.000000
_ANTISCATTER=3.000000
_DETECTOR=1
; S.C.
_HV=687
_GAIN=80
_LLD=0.690000
_ULD=1.866000
_DETECTORSLIT='unkn'
_AUX1=0.000000
_AUX2=0.000000
_AUX3=0.000000
_TIMESTARTED=12274
_TEMP_RATE=0.000000
_TEMP_DELAY=0.000000
_KV=35
_MA=40
_RANGE_WL=1.788970
_3DPLANE=0
_2THETACOUNTS
   0.0000      6588
; (Data for Range number 123)
_DRIVE='PHI'
_STEPTIME=20
_STEPSIZE=5.000000
_STEPMODE='S'
_START=0.000000
_THETA=47.5
_2THETA=95
_KHI=15
_PHI=0.000000
_X=0.000000
_Y=0.000000
_Z=0.000000
_DIVERGENCE=3.000000
_ANTISCATTER=3.000000
_DETECTOR=1
; S.C.
_HV=687
_GAIN=80
_LLD=0.690000
_ULD=1.866000
_DETECTORSLIT='unkn'
_AUX1=0.000000
_AUX2=0.000000
_AUX3=0.000000
_TIMESTARTED=12299
_TEMP_RATE=0.000000
_TEMP_DELAY=0.000000
_KV=35
_MA=40
_RANGE_WL=1.788970
_3DPLANE=0
_2THETACOUNTS
   0.0000      6711
; (Data for Range number 124)
_DRIVE='PHI'
_STEPTIME=20
_STEPSIZE=5.000000
_STEPMODE='S'
_START=0.000000
_THETA=47.5
_2THETA=95
_KHI=20
_PHI=0.000000
_X=0.000000
_Y=0.000000
_Z=0.000000
_DIVERGENCE=3.000000
_ANTISCATTER=3.000000
_DETECTOR=1
; S.C.
_HV=687
_GAIN=80
_LLD=0.690000
_ULD=1.866000
_DETECTORSLIT='unkn'
_AUX1=0.000000
_AUX2=0.000000
_AUX3=0.000000
_TIMESTARTED=12323
_TEMP_RATE=0.000000
_TEMP_DELAY=0.000000
_KV=35
_MA=40
_RANGE_WL=1.788970
_3DPLANE=0
_2THETACOUNTS
   0.0000      6648
; (Data for Range number 125)
_DRIVE='PHI'
_STEPTIME=20
_STEPSIZE=5.000000
_STEPMODE='S'
_START=0.000000
_THETA=47.5
_2THETA=95
_KHI=25
_PHI=0.000000
_X=0.000000
_Y=0.000000
_Z=0.000000
_DIVERGENCE=3.000000
_ANTISCATTER=3.000000
_DETECTOR=1
; S.C.
_HV=687
_GAIN=80
_LLD=0.690000
_ULD=1.866000
_DETECTORSLIT='unkn'
_AUX1=0.000000
_AUX2=0.000000
_AUX3=0.000000
_TIMESTARTED=12348
_TEMP_RATE=0.000000
_TEMP_DELAY=0.000000
_KV=35
_MA=40
_RANGE_WL=1.788970
_3DPLANE=0
_2THETACOUNTS
   0.0000      6601
; (Data for Range number 126)
_DRIVE='PHI'
_STEPTIME=20
_STEPSIZE=5.000000
_STEPMODE='S'
_START=0.000000
_THETA=47.5
_2THETA=95
_KHI=30
_PHI=0.000000
_X=0.000000
_Y=0.000000
_Z=0.000000
_DIVERGENCE=3.000000
_ANTISCATTER=3.000000
_DETECTOR=1
; S.C.
_HV=687
_GAIN=80
_LLD=0.690000
_ULD=1.866000
_DETECTORSLIT='unkn'
_AUX1=0.000000
_AUX2=0.000000
_AUX3=0.000000
_TIMESTARTED=12372
_TEMP_RATE=0.000000
_TEMP_DELAY=0.000000
_KV=35
_MA=40
_RANGE_WL=1.788970
_3DPLANE=0
_2THETACOUNTS
   0.0000      6611
; (Data for Range number 127)
_DRIVE='PHI'
_STEPTIME=20
_STEPSIZE=5.000000
_STEPMODE='S'
_START=0.000000
_THETA=47.5
_2THETA=95
_KHI=35
_PHI=0.000000
_X=0.000000
_Y=0.000000
_Z=0.000000
_DIVERGENCE=3.000000
_ANTISCATTER=3.000000
_DETECTOR=1
; S.C.
_HV=687
_GAIN=80
_LLD=0.690000
_ULD=1.866000
_DETECTORSLIT='unkn'
_AUX1=0.000000
_AUX2=0.000000
_AUX3=0.000000
_TIMESTARTED=12397
_TEMP_RATE=0.000000
_TEMP_DELAY=0.000000
_KV=35
_MA=40
_RANGE_WL=1.788970
_3DPLANE=0
_2THETACOUNTS
   0.0000      6490
; (Data for Range number 128)
_DRIVE='PHI'
_STEPTIME=20
_STEPSIZE=5.000000
_STEPMODE='S'
_START=0.000000
_THETA=47.5
_2THETA=95
_KHI=40
_PHI=0.000000
_X=0.000000
_Y=0.000000
_Z=0.000000
_DIVERGENCE=3.000000
_ANTISCATTER=3.000000
_DETECTOR=1
; S.C.
_HV=687
_GAIN=80
_LLD=0.690000
_ULD=1.866000
_DETECTORSLIT='unkn'
_AUX1=0.000000
_AUX2=0.000000
_AUX3=0.000000
_TIMESTARTED=12422
_TEMP_RATE=0.000000
_TEMP_DELAY=0.000000
_KV=35
_MA=40
_RANGE_WL=1.788970
_3DPLANE=0
_2THETACOUNTS
   0.0000      6626
; (Data for Range number 129)
_DRIVE='PHI'
_STEPTIME=20
_STEPSIZE=5.000000
_STEPMODE='S'
_START=0.000000
_THETA=47.5
_2THETA=95
_KHI=45
_PHI=0.000000
_X=0.000000
_Y=0.000000
_Z=0.000000
_DIVERGENCE=3.000000
_ANTISCATTER=3.000000
_DETECTOR=1
; S.C.
_HV=687
_GAIN=80
_LLD=0.690000
_ULD=1.866000
_DETECTORSLIT='unkn'
_AUX1=0.000000
_AUX2=0.000000
_AUX3=0.000000
_TIMESTARTED=12445
_TEMP_RATE=0.000000
_TEMP_DELAY=0.000000
_KV=35
_MA=40
_RANGE_WL=1.788970
_3DPLANE=0
_2THETACOUNTS
   0.0000      6618
; (Data for Range number 130)
_DRIVE='PHI'
_STEPTIME=20
_STEPSIZE=5.000000
_STEPMODE='S'
_START=0.000000
_THETA=47.5
_2THETA=95
_KHI=50
_PHI=0.000000
_X=0.000000
_Y=0.000000
_Z=0.000000
_DIVERGENCE=3.000000
_ANTISCATTER=3.000000
_DETECTOR=1
; S.C.
_HV=687
_GAIN=80
_LLD=0.690000
_ULD=1.866000
_DETECTORSLIT='unkn'
_AUX1=0.000000
_AUX2=0.000000
_AUX3=0.000000
_TIMESTARTED=12471
_TEMP_RATE=0.000000
_TEMP_DELAY=0.000000
_KV=35
_MA=40
_RANGE_WL=1.788970
_3DPLANE=0
_2THETACOUNTS
   0.0000      6580
; (Data for Range number 131)
_DRIVE='PHI'
_STEPTIME=20
_STEPSIZE=5.000000
_STEPMODE='S'
_START=0.000000
_THETA=47.5
_2THETA=95
_KHI=55
_PHI=0.000000
_X=0.000000
_Y=0.000000
_Z=0.000000
_DIVERGENCE=3.000000
_ANTISCATTER=3.000000
_DETECTOR=1
; S.C.
_HV=687
_GAIN=80
_LLD=0.690000
_ULD=1.866000
_DETECTORSLIT='unkn'
_AUX1=0.000000
_AUX2=0.000000
_AUX3=0.000000
_TIMESTARTED=12495
_TEMP_RATE=0.000000
_TEMP_DELAY=0.000000
_KV=35
_MA=40
_RANGE_WL=1.788970
_3DPLANE=0
_2THETACOUNTS
   0.0000      6654
; (Data for Range number 132)
_DRIVE='PHI'
_STEPTIME=20
_STEPSIZE=5.000000
_STEPMODE='S'
_START=0.000000
_THETA=47.5
_2THETA=95
_KHI=60
_PHI=0.000000
_X=0.000000
_Y=0.000000
_Z=0.000000
_DIVERGENCE=3.000000
_ANTISCATTER=3.000000
_DETECTOR=1
; S.C.
_HV=687
_GAIN=80
_LLD=0.690000
_ULD=1.866000
_DETECTORSLIT='unkn'
_AUX1=0.000000
_AUX2=0.000000
_AUX3=0.000000
_TIMESTARTED=12519
_TEMP_RATE=0.000000
_TEMP_DELAY=0.000000
_KV=35
_MA=40
_RANGE_WL=1.788970
_3DPLANE=0
_2THETACOUNTS
   0.0000      6658
; (Data for Range number 133)
_DRIVE='PHI'
_STEPTIME=20
_STEPSIZE=5.000000
_STEPMODE='S'
_START=0.000000
_THETA=47.5
_2THETA=95
_KHI=65
_PHI=0.000000
_X=0.000000
_Y=0.000000
_Z=0.000000
_DIVERGENCE=3.000000
_ANTISCATTER=3.000000
_DETECTOR=1
; S.C.
_HV=687
_GAIN=80
_LLD=0.690000
_ULD=1.866000
_DETECTORSLIT='unkn'
_AUX1=0.000000
_AUX2=0.000000
_AUX3=0.000000
_TIMESTARTED=12544
_TEMP_RATE=0.000000
_TEMP_DELAY=0.000000
_KV=35
_MA=40
_RANGE_WL=1.788970
_3DPLANE=0
_2THETACOUNTS
   0.0000      6535
; (Data for Range number 134)
_DRIVE='PHI'
_STEPTIME=20
_STEPSIZE=5.000000
_STEPMODE='S'
_START=0.000000
_THETA=47.5
_2THETA=95
_KHI=70
_PHI=0.000000
_X=0.000000
_Y=0.000000
_Z=0.000000
_DIVERGENCE=3.000000
_ANTISCATTER=3.000000
_DETECTOR=1
; S.C.
_HV=687
_GAIN=80
_LLD=0.690000
_ULD=1.866000
_DETECTORSLIT='unkn'
_AUX1=0.000000
_AUX2=0.000000
_AUX3=0.000000
_TIMESTARTED=12568
_TEMP_RATE=0.000000
_TEMP_DELAY=0.000000
_KV=35
_MA=40
_RANGE_WL=1.788970
_3DPLANE=0
_2THETACOUNTS
   0.0000      6565
; (Data for Range number 135)
_DRIVE='PHI'
_STEPTIME=20
_STEPSIZE=5.000000
_STEPMODE='S'
_START=0.000000
_THETA=47.5
_2THETA=95
_KHI=75
_PHI=0.000000
_X=0.000000
_Y=0.000000
_Z=0.000000
_DIVERGENCE=3.000000
_ANTISCATTER=3.000000
_DETECTOR=1
; S.C.
_HV=687
_GAIN=80
_LLD=0.690000
_ULD=1.866000
_DETECTORSLIT='unkn'
_AUX1=0.000000
_AUX2=0.000000
_AUX3=0.000000
_TIMESTARTED=12593
_TEMP_RATE=0.000000
_TEMP_DELAY=0.000000
_KV=35
_MA=40
_RANGE_WL=1.788970
_3DPLANE=0
_2THETACOUNTS
   0.0000      6408
; (Data for Range number 136)
_DRIVE='PHI'
_STEPTIME=20
_STEPSIZE=5.000000
_STEPMODE='S'
_START=0.000000
_THETA=47.5
_2THETA=95
_KHI=80
_PHI=0.000000
_X=0.000000
_Y=0.000000
_Z=0.000000
_DIVERGENCE=3.000000
_ANTISCATTER=3.000000
_DETECTOR=1
; S.C.
_HV=687
_GAIN=80
_LLD=0.690000
_ULD=1.866000
_DETECTORSLIT='unkn'
_AUX1=0.000000
_AUX2=0.000000
_AUX3=0.000000
_TIMESTARTED=12618
_TEMP_RATE=0.000000
_TEMP_DELAY=0.000000
_KV=35
_MA=40
_RANGE_WL=1.788970
_3DPLANE=0
_2THETACOUNTS
   0.0000      5672
; (Data for Range number 137)
_DRIVE='PHI'
_STEPTIME=20
_STEPSIZE=5.000000
_STEPMODE='S'
_START=0.000000
_THETA=52.5
_2THETA=105
_KHI=0.000000
_PHI=0.000000
_X=0.000000
_Y=0.000000
_Z=0.000000
_DIVERGENCE=3.000000
_ANTISCATTER=3.000000
_DETECTOR=1
; S.C.
_HV=687
_GAIN=80
_LLD=0.690000
_ULD=1.866000
_DETECTORSLIT='unkn'
_AUX1=0.000000
_AUX2=0.000000
_AUX3=0.000000
_TIMESTARTED=12662
_TEMP_RATE=0.000000
_TEMP_DELAY=0.000000
_KV=35
_MA=40
_RANGE_WL=1.788970
_3DPLANE=0
_2THETACOUNTS
   0.0000      6769
; (Data for Range number 138)
_DRIVE='PHI'
_STEPTIME=20
_STEPSIZE=5.000000
_STEPMODE='S'
_START=0.000000
_THETA=52.5
_2THETA=105
_KHI=5.000000
_PHI=0.000000
_X=0.000000
_Y=0.000000
_Z=0.000000
_DIVERGENCE=3.000000
_ANTISCATTER=3.000000
_DETECTOR=1
; S.C.
_HV=687
_GAIN=80
_LLD=0.690000
_ULD=1.866000
_DETECTORSLIT='unkn'
_AUX1=0.000000
_AUX2=0.000000
_AUX3=0.000000
_TIMESTARTED=12686
_TEMP_RATE=0.000000
_TEMP_DELAY=0.000000
_KV=35
_MA=40
_RANGE_WL=1.788970
_3DPLANE=0
_2THETACOUNTS
   0.0000      6729
; (Data for Range number 139)
_DRIVE='PHI'
_STEPTIME=20
_STEPSIZE=5.000000
_STEPMODE='S'
_START=0.000000
_THETA=52.5
_2THETA=105
_KHI=10
_PHI=0.000000
_X=0.000000
_Y=0.000000
_Z=0.000000
_DIVERGENCE=3.000000
_ANTISCATTER=3.000000
_DETECTOR=1
; S.C.
_HV=687
_GAIN=80
_LLD=0.690000
_ULD=1.866000
_DETECTORSLIT='unkn'
_AUX1=0.000000
_AUX2=0.000000
_AUX3=0.000000
_TIMESTARTED=12710
_TEMP_RATE=0.000000
_TEMP_DELAY=0.000000
_KV=35
_MA=40
_RANGE_WL=1.788970
_3DPLANE=0
_2THETACOUNTS
   0.0000      6770
; (Data for Range number 140)
_DRIVE='PHI'
_STEPTIME=20
_STEPSIZE=5.000000
_STEPMODE='S'
_START=0.000000
_THETA=52.5
_2THETA=105
_KHI=15
_PHI=0.000000
_X=0.000000
_Y=0.000000
_Z=0.000000
_DIVERGENCE=3.000000
_ANTISCATTER=3.000000
_DETECTOR=1
; S.C.
_HV=687
_GAIN=80
_LLD=0.690000
_ULD=1.866000
_DETECTORSLIT='unkn'
_AUX1=0.000000
_AUX2=0.000000
_AUX3=0.000000
_TIMESTARTED=12736
_TEMP_RATE=0.000000
_TEMP_DELAY=0.000000
_KV=35
_MA=40
_RANGE_WL=1.788970
_3DPLANE=0
_2THETACOUNTS
   0.0000      6618
; (Data for Range number 141)
_DRIVE='PHI'
_STEPTIME=20
_STEPSIZE=5.000000
_STEPMODE='S'
_START=0.000000
_THETA=52.5
_2THETA=105
_KHI=20
_PHI=0.000000
_X=0.000000
_Y=0.000000
_Z=0.000000
_DIVERGENCE=3.000000
_ANTISCATTER=3.000000
_DETECTOR=1
; S.C.
_HV=687
_GAIN=80
_LLD=0.690000
_ULD=1.866000
_DETECTORSLIT='unkn'
_AUX1=0.000000
_AUX2=0.000000
_AUX3=0.000000
_TIMESTARTED=12761
_TEMP_RATE=0.000000
_TEMP_DELAY=0.000000
_KV=35
_MA=40
_RANGE_WL=1.788970
_3DPLANE=0
_2THETACOUNTS
   0.0000      6734
; (Data for Range number 142)
_DRIVE='PHI'
_STEPTIME=20
_STEPSIZE=5.000000
_STEPMODE='S'
_START=0.000000
_THETA=52.5
_2THETA=105
_KHI=25
_PHI=0.000000
_X=0.000000
_Y=0.000000
_Z=0.000000
_DIVERGENCE=3.000000
_ANTISCATTER=3.000000
_DETECTOR=1
; S.C.
_HV=687
_GAIN=80
_LLD=0.690000
_ULD=1.866000
_DETECTORSLIT='unkn'
_AUX1=0.000000
_AUX2=0.000000
_AUX3=0.000000
_TIMESTARTED=12784
_TEMP_RATE=0.000000
_TEMP_DELAY=0.000000
_KV=35
_MA=40
_RANGE_WL=1.788970
_3DPLANE=0
_2THETACOUNTS
   0.0000      6735
; (Data for Range number 143)
_DRIVE='PHI'
_STEPTIME=20
_STEPSIZE=5.000000
_STEPMODE='S'
_START=0.000000
_THETA=52.5
_2THETA=105
_KHI=30
_PHI=0.000000
_X=0.000000
_Y=0.000000
_Z=0.000000
_DIVERGENCE=3.000000
_ANTISCATTER=3.000000
_DETECTOR=1
; S.C.
_HV=687
_GAIN=80
_LLD=0.690000
_ULD=1.866000
_DETECTORSLIT='unkn'
_AUX1=0.000000
_AUX2=0.000000
_AUX3=0.000000
_TIMESTARTED=12809
_TEMP_RATE=0.000000
_TEMP_DELAY=0.000000
_KV=35
_MA=40
_RANGE_WL=1.788970
_3DPLANE=0
_2THETACOUNTS
   0.0000      6736
; (Data for Range number 144)
_DRIVE='PHI'
_STEPTIME=20
_STEPSIZE=5.000000
_STEPMODE='S'
_START=0.000000
_THETA=52.5
_2THETA=105
_KHI=35
_PHI=0.000000
_X=0.000000
_Y=0.000000
_Z=0.000000
_DIVERGENCE=3.000000
_ANTISCATTER=3.000000
_DETECTOR=1
; S.C.
_HV=687
_GAIN=80
_LLD=0.690000
_ULD=1.866000
_DETECTORSLIT='unkn'
_AUX1=0.000000
_AUX2=0.000000
_AUX3=0.000000
_TIMESTARTED=12834
_TEMP_RATE=0.000000
_TEMP_DELAY=0.000000
_KV=35
_MA=40
_RANGE_WL=1.788970
_3DPLANE=0
_2THETACOUNTS
   0.0000      6884
; (Data for Range number 145)
_DRIVE='PHI'
_STEPTIME=20
_STEPSIZE=5.000000
_STEPMODE='S'
_START=0.000000
_THETA=52.5
_2THETA=105
_KHI=40
_PHI=0.000000
_X=0.000000
_Y=0.000000
_Z=0.000000
_DIVERGENCE=3.000000
_ANTISCATTER=3.000000
_DETECTOR=1
; S.C.
_HV=687
_GAIN=80
_LLD=0.690000
_ULD=1.866000
_DETECTORSLIT='unkn'
_AUX1=0.000000
_AUX2=0.000000
_AUX3=0.000000
_TIMESTARTED=12859
_TEMP_RATE=0.000000
_TEMP_DELAY=0.000000
_KV=35
_MA=40
_RANGE_WL=1.788970
_3DPLANE=0
_2THETACOUNTS
   0.0000      6588
; (Data for Range number 146)
_DRIVE='PHI'
_STEPTIME=20
_STEPSIZE=5.000000
_STEPMODE='S'
_START=0.000000
_THETA=52.5
_2THETA=105
_KHI=45
_PHI=0.000000
_X=0.000000
_Y=0.000000
_Z=0.000000
_DIVERGENCE=3.000000
_ANTISCATTER=3.000000
_DETECTOR=1
; S.C.
_HV=687
_GAIN=80
_LLD=0.690000
_ULD=1.866000
_DETECTORSLIT='unkn'
_AUX1=0.000000
_AUX2=0.000000
_AUX3=0.000000
_TIMESTARTED=12884
_TEMP_RATE=0.000000
_TEMP_DELAY=0.000000
_KV=35
_MA=40
_RANGE_WL=1.788970
_3DPLANE=0
_2THETACOUNTS
   0.0000      6628
; (Data for Range number 147)
_DRIVE='PHI'
_STEPTIME=20
_STEPSIZE=5.000000
_STEPMODE='S'
_START=0.000000
_THETA=52.5
_2THETA=105
_KHI=50
_PHI=0.000000
_X=0.000000
_Y=0.000000
_Z=0.000000
_DIVERGENCE=3.000000
_ANTISCATTER=3.000000
_DETECTOR=1
; S.C.
_HV=687
_GAIN=80
_LLD=0.690000
_ULD=1.866000
_DETECTORSLIT='unkn'
_AUX1=0.000000
_AUX2=0.000000
_AUX3=0.000000
_TIMESTARTED=12910
_TEMP_RATE=0.000000
_TEMP_DELAY=0.000000
_KV=35
_MA=40
_RANGE_WL=1.788970
_3DPLANE=0
_2THETACOUNTS
   0.0000      6590
; (Data for Range number 148)
_DRIVE='PHI'
_STEPTIME=20
_STEPSIZE=5.000000
_STEPMODE='S'
_START=0.000000
_THETA=52.5
_2THETA=105
_KHI=55
_PHI=0.000000
_X=0.000000
_Y=0.000000
_Z=0.000000
_DIVERGENCE=3.000000
_ANTISCATTER=3.000000
_DETECTOR=1
; S.C.
_HV=687
_GAIN=80
_LLD=0.690000
_ULD=1.866000
_DETECTORSLIT='unkn'
_AUX1=0.000000
_AUX2=0.000000
_AUX3=0.000000
_TIMESTARTED=12933
_TEMP_RATE=0.000000
_TEMP_DELAY=0.000000
_KV=35
_MA=40
_RANGE_WL=1.788970
_3DPLANE=0
_2THETACOUNTS
   0.0000      6572
; (Data for Range number 149)
_DRIVE='PHI'
_STEPTIME=20
_STEPSIZE=5.000000
_STEPMODE='S'
_START=0.000000
_THETA=52.5
_2THETA=105
_KHI=60
_PHI=0.000000
_X=0.000000
_Y=0.000000
_Z=0.000000
_DIVERGENCE=3.000000
_ANTISCATTER=3.000000
_DETECTOR=1
; S.C.
_HV=687
_GAIN=80
_LLD=0.690000
_ULD=1.866000
_DETECTORSLIT='unkn'
_AUX1=0.000000
_AUX2=0.000000
_AUX3=0.000000
_TIMESTARTED=12959
_TEMP_RATE=0.000000
_TEMP_DELAY=0.000000
_KV=35
_MA=40
_RANGE_WL=1.788970
_3DPLANE=0
_2THETACOUNTS
   0.0000      6869
; (Data for Range number 150)
_DRIVE='PHI'
_STEPTIME=20
_STEPSIZE=5.000000
_STEPMODE='S'
_START=0.000000
_THETA=52.5
_2THETA=105
_KHI=65
_PHI=0.000000
_X=0.000000
_Y=0.000000
_Z=0.000000
_DIVERGENCE=3.000000
_ANTISCATTER=3.000000
_DETECTOR=1
; S.C.
_HV=687
_GAIN=80
_LLD=0.690000
_ULD=1.866000
_DETECTORSLIT='unkn'
_AUX1=0.000000
_AUX2=0.000000
_AUX3=0.000000
_TIMESTARTED=12983
_TEMP_RATE=0.000000
_TEMP_DELAY=0.000000
_KV=35
_MA=40
_RANGE_WL=1.788970
_3DPLANE=0
_2THETACOUNTS
   0.0000      6809
; (Data for Range number 151)
_DRIVE='PHI'
_STEPTIME=20
_STEPSIZE=5.000000
_STEPMODE='S'
_START=0.000000
_THETA=52.5
_2THETA=105
_KHI=70
_PHI=0.000000
_X=0.000000
_Y=0.000000
_Z=0.000000
_DIVERGENCE=3.000000
_ANTISCATTER=3.000000
_DETECTOR=1
; S.C.
_HV=687
_GAIN=80
_LLD=0.690000
_ULD=1.866000
_DETECTORSLIT='unkn'
_AUX1=0.000000
_AUX2=0.000000
_AUX3=0.000000
_TIMESTARTED=13008
_TEMP_RATE=0.000000
_TEMP_DELAY=0.000000
_KV=35
_MA=40
_RANGE_WL=1.788970
_3DPLANE=0
_2THETACOUNTS
   0.0000      6787
; (Data for Range number 152)
_DRIVE='PHI'
_STEPTIME=20
_STEPSIZE=5.000000
_STEPMODE='S'
_START=0.000000
_THETA=52.5
_2THETA=105
_KHI=75
_PHI=0.000000
_X=0.000000
_Y=0.000000
_Z=0.000000
_DIVERGENCE=3.000000
_ANTISCATTER=3.000000
_DETECTOR=1
; S.C.
_HV=687
_GAIN=80
_LLD=0.690000
_ULD=1.866000
_DETECTORSLIT='unkn'
_AUX1=0.000000
_AUX2=0.000000
_AUX3=0.000000
_TIMESTARTED=13032
_TEMP_RATE=0.000000
_TEMP_DELAY=0.000000
_KV=35
_MA=40
_RANGE_WL=1.788970
_3DPLANE=0
_2THETACOUNTS
   0.0000      6640
; (Data for Range number 153)
_DRIVE='PHI'
_STEPTIME=20
_STEPSIZE=5.000000
_STEPMODE='S'
_START=0.000000
_THETA=52.5
_2THETA=105
_KHI=80
_PHI=0.000000
_X=0.000000
_Y=0.000000
_Z=0.000000
_DIVERGENCE=3.000000
_ANTISCATTER=3.000000
_DETECTOR=1
; S.C.
_HV=687
_GAIN=80
_LLD=0.690000
_ULD=1.866000
_DETECTORSLIT='unkn'
_AUX1=0.000000
_AUX2=0.000000
_AUX3=0.000000
_TIMESTARTED=13056
_TEMP_RATE=0.000000
_TEMP_DELAY=0.000000
_KV=35
_MA=40
_RANGE_WL=1.788970
_3DPLANE=0
_2THETACOUNTS
   0.0000      6012