File: dat/as_R.UXD
; C:\DIFFDAT1\GIFT\MML\HwiGeon\as_R.raw(Diffrac Plus V1.01 file) converted by XCH V1.0
_FILEVERSION=2
_SITE='Korea'
_USER='Admin'
_SAMPLE_CHANGER_CODE=0
_ATTACHMENTS_CODE=0
_GONIOMETER_RADIUS=300
_FIXED_DIVSLIT=1.000000
_FIXED_SAMPLESLIT=0.000000
_FIXED_DETSLIT=0.100000
_MONOCHROMATOR=0
; None
_THIN_FILM='N'
_BETA_FILTER='Y'
_FIXED_ANTISLIT=0.600000
_ANALYZER_CODE=0
; None
_DATEMEASURED='12-Mar-2012 20:08:28'
_WL_UNIT='A'
_WL1=1.788970
_WL2=1.792850
_WL3=1.620790
_WLRATIO=0.500000
_ANODE='Co'
; (Data for Range number 1)
_DRIVE='PHI'
_STEPTIME=2.000000
_STEPSIZE=5.000000
_STEPMODE='C'
_START=0.000000
_THETA=26.1065
_2THETA=52.213
_KHI=0.000000
_PHI=0.000000
_X=0.000000
_Y=0.000000
_Z=0.000000
_DIVERGENCE=3.000000
_ANTISCATTER=3.000000
_DETECTOR=1
; S.C.
_HV=687
_GAIN=80
_LLD=0.690000
_ULD=1.866000
_DETECTORSLIT='unkn'
_AUX1=0.000000
_AUX2=0.000000
_AUX3=0.000000
_TIMESTARTED=15
_TEMP_RATE=0.000000
_TEMP_DELAY=0.000000
_KV=35
_MA=40
_RANGE_WL=1.788970
_3DPLANE=0
_2THETACOUNTS
   0.0000       313
   5.0000       359
  10.0000       332
  15.0000       375
  20.0000       313
  25.0000       390
  30.0000       412
  35.0000       474
  40.0000       480
  45.0000       459
  50.0000       473
  55.0000       493
  60.0000       481
  65.0000       471
  70.0000       436
  75.0000       435
  80.0000       430
  85.0000       409
  90.0000       405
  95.0000       422
 100.0000       394
 105.0000       377
 110.0000       450
 115.0000       465
 120.0000       476
 125.0000       477
 130.0000       507
 135.0000       488
 140.0000       459
 145.0000       478
 150.0000       568
 155.0000       594
 160.0000       581
 165.0000       523
 170.0000       550
 175.0000       530
 180.0000       566
 185.0000       481
 190.0000       491
 195.0000       455
 200.0000       436
 205.0000       471
 210.0000       414
 215.0000       414
 220.0000       379
 225.0000       383
 230.0000       378
 235.0000       395
 240.0000       377
 245.0000       358
 250.0000       339
 255.0000       367
 260.0000       330
 265.0000       353
 270.0000       314
 275.0000       344
 280.0000       362
 285.0000       318
 290.0000       367
 295.0000       386
 300.0000       370
 305.0000       335
 310.0000       337
 315.0000       351
 320.0000       443
 325.0000       434
 330.0000       402
 335.0000       380
 340.0000       365
 345.0000       346
 350.0000       335
 355.0000       315
; (Data for Range number 2)
_DRIVE='PHI'
_STEPTIME=2.000000
_STEPSIZE=5.000000
_STEPMODE='C'
_START=0.000000
_THETA=26.1065
_2THETA=52.213
_KHI=5.000000
_PHI=0.000000
_X=0.000000
_Y=0.000000
_Z=0.000000
_DIVERGENCE=3.000000
_ANTISCATTER=3.000000
_DETECTOR=1
; S.C.
_HV=687
_GAIN=80
_LLD=0.690000
_ULD=1.866000
_DETECTORSLIT='unkn'
_AUX1=0.000000
_AUX2=0.000000
_AUX3=0.000000
_TIMESTARTED=220
_TEMP_RATE=0.000000
_TEMP_DELAY=0.000000
_KV=35
_MA=40
_RANGE_WL=1.788970
_3DPLANE=0
_2THETACOUNTS
   0.0000       469
   5.0000       499
  10.0000       576
  15.0000       617
  20.0000       533
  25.0000       474
  30.0000       461
  35.0000       430
  40.0000       456
  45.0000       454
  50.0000       423
  55.0000       570
  60.0000       432
  65.0000       501
  70.0000       601
  75.0000       501
  80.0000       372
  85.0000       368
  90.0000       404
  95.0000       471
 100.0000       518
 105.0000       701
 110.0000       501
 115.0000       400
 120.0000       401
 125.0000       420
 130.0000       388
 135.0000       405
 140.0000       456
 145.0000       544
 150.0000       420
 155.0000       447
 160.0000       429
 165.0000       497
 170.0000       439
 175.0000       531
 180.0000       472
 185.0000       461
 190.0000       404
 195.0000       414
 200.0000       390
 205.0000       433
 210.0000       444
 215.0000       489
 220.0000       421
 225.0000       332
 230.0000       334
 235.0000       410
 240.0000       473
 245.0000       459
 250.0000       464
 255.0000       470
 260.0000       491
 265.0000       450
 270.0000       452
 275.0000       471
 280.0000       466
 285.0000       491
 290.0000       411
 295.0000       432
 300.0000       480
 305.0000       437
 310.0000       486
 315.0000       493
 320.0000       434
 325.0000       355
 330.0000       376
 335.0000       370
 340.0000       469
 345.0000       405
 350.0000       388
 355.0000       378
; (Data for Range number 3)
_DRIVE='PHI'
_STEPTIME=2.000000
_STEPSIZE=5.000000
_STEPMODE='C'
_START=0.000000
_THETA=26.1065
_2THETA=52.213
_KHI=10
_PHI=0.000000
_X=0.000000
_Y=0.000000
_Z=0.000000
_DIVERGENCE=3.000000
_ANTISCATTER=3.000000
_DETECTOR=1
; S.C.
_HV=687
_GAIN=80
_LLD=0.690000
_ULD=1.866000
_DETECTORSLIT='unkn'
_AUX1=0.000000
_AUX2=0.000000
_AUX3=0.000000
_TIMESTARTED=425
_TEMP_RATE=0.000000
_TEMP_DELAY=0.000000
_KV=35
_MA=40
_RANGE_WL=1.788970
_3DPLANE=0
_2THETACOUNTS
   0.0000       430
   5.0000       543
  10.0000       404
  15.0000       411
  20.0000       396
  25.0000       562
  30.0000       676
  35.0000       599
  40.0000       587
  45.0000       433
  50.0000       482
  55.0000       430
  60.0000       505
  65.0000       425
  70.0000       511
  75.0000       573
  80.0000       469
  85.0000       481
  90.0000       490
  95.0000       733
 100.0000       588
 105.0000       642
 110.0000       546
 115.0000       639
 120.0000       497
 125.0000       426
 130.0000       436
 135.0000       500
 140.0000       497
 145.0000       547
 150.0000       471
 155.0000       557
 160.0000       521
 165.0000       468
 170.0000       495
 175.0000       524
 180.0000       506
 185.0000       539
 190.0000       538
 195.0000       458
 200.0000       431
 205.0000       424
 210.0000       434
 215.0000       442
 220.0000       515
 225.0000       637
 230.0000       411
 235.0000       357
 240.0000       461
 245.0000       555
 250.0000       584
 255.0000       680
 260.0000       569
 265.0000       553
 270.0000       664
 275.0000       877
 280.0000       512
 285.0000       607
 290.0000       484
 295.0000       522
 300.0000       449
 305.0000       448
 310.0000       459
 315.0000       514
 320.0000       504
 325.0000       406
 330.0000       513
 335.0000       420
 340.0000       563
 345.0000       445
 350.0000       499
 355.0000       493
; (Data for Range number 4)
_DRIVE='PHI'
_STEPTIME=2.000000
_STEPSIZE=5.000000
_STEPMODE='C'
_START=0.000000
_THETA=26.1065
_2THETA=52.213
_KHI=15
_PHI=0.000000
_X=0.000000
_Y=0.000000
_Z=0.000000
_DIVERGENCE=3.000000
_ANTISCATTER=3.000000
_DETECTOR=1
; S.C.
_HV=687
_GAIN=80
_LLD=0.690000
_ULD=1.866000
_DETECTORSLIT='unkn'
_AUX1=0.000000
_AUX2=0.000000
_AUX3=0.000000
_TIMESTARTED=629
_TEMP_RATE=0.000000
_TEMP_DELAY=0.000000
_KV=35
_MA=40
_RANGE_WL=1.788970
_3DPLANE=0
_2THETACOUNTS
   0.0000       492
   5.0000       690
  10.0000       663
  15.0000       633
  20.0000       662
  25.0000      1042
  30.0000       560
  35.0000       495
  40.0000       542
  45.0000       587
  50.0000       552
  55.0000       570
  60.0000       679
  65.0000       673
  70.0000       492
  75.0000       479
  80.0000       744
  85.0000       540
  90.0000       661
  95.0000       548
 100.0000       694
 105.0000       581
 110.0000       633
 115.0000       554
 120.0000       417
 125.0000       541
 130.0000       720
 135.0000       814
 140.0000       770
 145.0000       578
 150.0000       674
 155.0000       628
 160.0000       535
 165.0000       616
 170.0000       657
 175.0000       550
 180.0000       555
 185.0000       524
 190.0000       552
 195.0000       634
 200.0000       575
 205.0000       729
 210.0000       670
 215.0000       480
 220.0000       589
 225.0000       573
 230.0000       671
 235.0000       647
 240.0000       650
 245.0000       540
 250.0000       551
 255.0000       525
 260.0000       800
 265.0000       626
 270.0000       777
 275.0000       838
 280.0000       678
 285.0000       585
 290.0000       569
 295.0000       694
 300.0000       585
 305.0000       484
 310.0000       537
 315.0000       594
 320.0000       414
 325.0000       499
 330.0000       495
 335.0000       712
 340.0000       636
 345.0000       474
 350.0000       616
 355.0000       683
; (Data for Range number 5)
_DRIVE='PHI'
_STEPTIME=2.000000
_STEPSIZE=5.000000
_STEPMODE='C'
_START=0.000000
_THETA=26.1065
_2THETA=52.213
_KHI=20
_PHI=0.000000
_X=0.000000
_Y=0.000000
_Z=0.000000
_DIVERGENCE=3.000000
_ANTISCATTER=3.000000
_DETECTOR=1
; S.C.
_HV=687
_GAIN=80
_LLD=0.690000
_ULD=1.866000
_DETECTORSLIT='unkn'
_AUX1=0.000000
_AUX2=0.000000
_AUX3=0.000000
_TIMESTARTED=835
_TEMP_RATE=0.000000
_TEMP_DELAY=0.000000
_KV=35
_MA=40
_RANGE_WL=1.788970
_3DPLANE=0
_2THETACOUNTS
   0.0000       719
   5.0000       736
  10.0000       487
  15.0000       572
  20.0000       584
  25.0000       645
  30.0000       682
  35.0000       824
  40.0000       706
  45.0000       608
  50.0000       620
  55.0000       724
  60.0000       798
  65.0000       885
  70.0000       925
  75.0000       909
  80.0000       832
  85.0000       939
  90.0000      1053
  95.0000       956
 100.0000       881
 105.0000       751
 110.0000      1004
 115.0000       923
 120.0000       802
 125.0000       902
 130.0000       790
 135.0000       721
 140.0000       646
 145.0000       791
 150.0000       726
 155.0000       715
 160.0000       629
 165.0000       857
 170.0000       700
 175.0000       647
 180.0000       558
 185.0000       609
 190.0000       747
 195.0000       662
 200.0000       737
 205.0000       673
 210.0000       813
 215.0000       696
 220.0000       806
 225.0000       627
 230.0000       617
 235.0000       736
 240.0000       664
 245.0000       783
 250.0000       904
 255.0000       830
 260.0000       718
 265.0000       970
 270.0000       642
 275.0000       739
 280.0000       713
 285.0000       828
 290.0000       834
 295.0000       737
 300.0000       922
 305.0000       696
 310.0000       550
 315.0000       686
 320.0000       695
 325.0000       654
 330.0000       904
 335.0000       714
 340.0000       628
 345.0000       571
 350.0000       581
 355.0000       602
; (Data for Range number 6)
_DRIVE='PHI'
_STEPTIME=2.000000
_STEPSIZE=5.000000
_STEPMODE='C'
_START=0.000000
_THETA=26.1065
_2THETA=52.213
_KHI=25
_PHI=0.000000
_X=0.000000
_Y=0.000000
_Z=0.000000
_DIVERGENCE=3.000000
_ANTISCATTER=3.000000
_DETECTOR=1
; S.C.
_HV=687
_GAIN=80
_LLD=0.690000
_ULD=1.866000
_DETECTORSLIT='unkn'
_AUX1=0.000000
_AUX2=0.000000
_AUX3=0.000000
_TIMESTARTED=1040
_TEMP_RATE=0.000000
_TEMP_DELAY=0.000000
_KV=35
_MA=40
_RANGE_WL=1.788970
_3DPLANE=0
_2THETACOUNTS
   0.0000       846
   5.0000       924
  10.0000       849
  15.0000      1015
  20.0000       745
  25.0000       911
  30.0000       799
  35.0000       867
  40.0000       902
  45.0000       950
  50.0000      1017
  55.0000      1236
  60.0000      1587
  65.0000      1364
  70.0000      2000
  75.0000      1880
  80.0000      2021
  85.0000      2269
  90.0000      2194
  95.0000      2250
 100.0000      2154
 105.0000      1903
 110.0000      1813
 115.0000      1607
 120.0000      1157
 125.0000      1223
 130.0000      1034
 135.0000      1026
 140.0000       895
 145.0000       729
 150.0000       975
 155.0000       870
 160.0000       724
 165.0000       795
 170.0000       701
 175.0000       717
 180.0000      1096
 185.0000       785
 190.0000       664
 195.0000       821
 200.0000       735
 205.0000       779
 210.0000       758
 215.0000       975
 220.0000       813
 225.0000      1030
 230.0000       809
 235.0000      1049
 240.0000      1128
 245.0000      1208
 250.0000      1629
 255.0000      1546
 260.0000      1628
 265.0000      1702
 270.0000      1782
 275.0000      1929
 280.0000      1465
 285.0000      1536
 290.0000      1335
 295.0000      1156
 300.0000       892
 305.0000       890
 310.0000       842
 315.0000       897
 320.0000       837
 325.0000       852
 330.0000       690
 335.0000       776
 340.0000       681
 345.0000       698
 350.0000       636
 355.0000       680
; (Data for Range number 7)
_DRIVE='PHI'
_STEPTIME=2.000000
_STEPSIZE=5.000000
_STEPMODE='C'
_START=0.000000
_THETA=26.1065
_2THETA=52.213
_KHI=30
_PHI=0.000000
_X=0.000000
_Y=0.000000
_Z=0.000000
_DIVERGENCE=3.000000
_ANTISCATTER=3.000000
_DETECTOR=1
; S.C.
_HV=687
_GAIN=80
_LLD=0.690000
_ULD=1.866000
_DETECTORSLIT='unkn'
_AUX1=0.000000
_AUX2=0.000000
_AUX3=0.000000
_TIMESTARTED=1245
_TEMP_RATE=0.000000
_TEMP_DELAY=0.000000
_KV=35
_MA=40
_RANGE_WL=1.788970
_3DPLANE=0
_2THETACOUNTS
   0.0000      1105
   5.0000       668
  10.0000       922
  15.0000      1167
  20.0000       720
  25.0000       867
  30.0000       979
  35.0000       955
  40.0000      1382
  45.0000      1702
  50.0000      1515
  55.0000      2076
  60.0000      2176
  65.0000      3210
  70.0000      2642
  75.0000      2678
  80.0000      3037
  85.0000      3108
  90.0000      3280
  95.0000      2981
 100.0000      2779
 105.0000      2698
 110.0000      2357
 115.0000      2233
 120.0000      2244
 125.0000      1799
 130.0000      1591
 135.0000      1259
 140.0000      1028
 145.0000      1020
 150.0000       893
 155.0000       975
 160.0000       818
 165.0000       739
 170.0000      1052
 175.0000       875
 180.0000       732
 185.0000       826
 190.0000       761
 195.0000       794
 200.0000       858
 205.0000       903
 210.0000       792
 215.0000      1044
 220.0000       947
 225.0000      1217
 230.0000      1835
 235.0000      1442
 240.0000      2076
 245.0000      2103
 250.0000      2463
 255.0000      2690
 260.0000      2665
 265.0000      2947
 270.0000      2958
 275.0000      2936
 280.0000      2706
 285.0000      2285
 290.0000      2063
 295.0000      1846
 300.0000      1695
 305.0000      1355
 310.0000      1400
 315.0000      1296
 320.0000       958
 325.0000       797
 330.0000       915
 335.0000       924
 340.0000       956
 345.0000       843
 350.0000      1025
 355.0000      1167
; (Data for Range number 8)
_DRIVE='PHI'
_STEPTIME=2.000000
_STEPSIZE=5.000000
_STEPMODE='C'
_START=0.000000
_THETA=26.1065
_2THETA=52.213
_KHI=35
_PHI=0.000000
_X=0.000000
_Y=0.000000
_Z=0.000000
_DIVERGENCE=3.000000
_ANTISCATTER=3.000000
_DETECTOR=1
; S.C.
_HV=687
_GAIN=80
_LLD=0.690000
_ULD=1.866000
_DETECTORSLIT='unkn'
_AUX1=0.000000
_AUX2=0.000000
_AUX3=0.000000
_TIMESTARTED=1450
_TEMP_RATE=0.000000
_TEMP_DELAY=0.000000
_KV=35
_MA=40
_RANGE_WL=1.788970
_3DPLANE=0
_2THETACOUNTS
   0.0000       716
   5.0000       877
  10.0000       906
  15.0000       765
  20.0000       912
  25.0000       878
  30.0000       877
  35.0000      1039
  40.0000      1342
  45.0000      1412
  50.0000      1663
  55.0000      1682
  60.0000      1567
  65.0000      1565
  70.0000      1478
  75.0000      1349
  80.0000      1382
  85.0000      1429
  90.0000      1297
  95.0000      1341
 100.0000      1292
 105.0000      1604
 110.0000      1523
 115.0000      1593
 120.0000      1703
 125.0000      1682
 130.0000      1448
 135.0000      1297
 140.0000      1030
 145.0000      1337
 150.0000       951
 155.0000       970
 160.0000       699
 165.0000       950
 170.0000       728
 175.0000       983
 180.0000       812
 185.0000       816
 190.0000       742
 195.0000       844
 200.0000       820
 205.0000       895
 210.0000       748
 215.0000       996
 220.0000      1344
 225.0000      1521
 230.0000      1605
 235.0000      1717
 240.0000      1881
 245.0000      1669
 250.0000      1913
 255.0000      1564
 260.0000      1747
 265.0000      1738
 270.0000      1615
 275.0000      1711
 280.0000      1892
 285.0000      1892
 290.0000      1770
 295.0000      2060
 300.0000      1783
 305.0000      1906
 310.0000      1482
 315.0000      1189
 320.0000       975
 325.0000       823
 330.0000      1030
 335.0000       774
 340.0000       945
 345.0000       758
 350.0000       854
 355.0000       889
; (Data for Range number 9)
_DRIVE='PHI'
_STEPTIME=2.000000
_STEPSIZE=5.000000
_STEPMODE='C'
_START=0.000000
_THETA=26.1065
_2THETA=52.213
_KHI=40
_PHI=0.000000
_X=0.000000
_Y=0.000000
_Z=0.000000
_DIVERGENCE=3.000000
_ANTISCATTER=3.000000
_DETECTOR=1
; S.C.
_HV=687
_GAIN=80
_LLD=0.690000
_ULD=1.866000
_DETECTORSLIT='unkn'
_AUX1=0.000000
_AUX2=0.000000
_AUX3=0.000000
_TIMESTARTED=1655
_TEMP_RATE=0.000000
_TEMP_DELAY=0.000000
_KV=35
_MA=40
_RANGE_WL=1.788970
_3DPLANE=0
_2THETACOUNTS
   0.0000       644
   5.0000       731
  10.0000       831
  15.0000       641
  20.0000       835
  25.0000       779
  30.0000       802
  35.0000       965
  40.0000       965
  45.0000      1079
  50.0000      1042
  55.0000      1061
  60.0000       860
  65.0000       763
  70.0000       791
  75.0000       535
  80.0000       584
  85.0000       502
  90.0000       523
  95.0000       597
 100.0000       481
 105.0000       614
 110.0000       715
 115.0000       737
 120.0000       855
 125.0000      1142
 130.0000      1027
 135.0000       974
 140.0000      1237
 145.0000       877
 150.0000       807
 155.0000       764
 160.0000       719
 165.0000       826
 170.0000       693
 175.0000       640
 180.0000       691
 185.0000       627
 190.0000       820
 195.0000       763
 200.0000       667
 205.0000       827
 210.0000       785
 215.0000      1072
 220.0000      1004
 225.0000      1001
 230.0000      1121
 235.0000      1234
 240.0000       923
 245.0000       989
 250.0000       783
 255.0000       926
 260.0000       617
 265.0000       507
 270.0000       550
 275.0000       633
 280.0000       602
 285.0000       774
 290.0000       775
 295.0000       987
 300.0000      1030
 305.0000      1234
 310.0000      1290
 315.0000      1012
 320.0000      1006
 325.0000       998
 330.0000       814
 335.0000       698
 340.0000       689
 345.0000       760
 350.0000       719
 355.0000       636
; (Data for Range number 10)
_DRIVE='PHI'
_STEPTIME=2.000000
_STEPSIZE=5.000000
_STEPMODE='C'
_START=0.000000
_THETA=26.1065
_2THETA=52.213
_KHI=45
_PHI=0.000000
_X=0.000000
_Y=0.000000
_Z=0.000000
_DIVERGENCE=3.000000
_ANTISCATTER=3.000000
_DETECTOR=1
; S.C.
_HV=687
_GAIN=80
_LLD=0.690000
_ULD=1.866000
_DETECTORSLIT='unkn'
_AUX1=0.000000
_AUX2=0.000000
_AUX3=0.000000
_TIMESTARTED=1860
_TEMP_RATE=0.000000
_TEMP_DELAY=0.000000
_KV=35
_MA=40
_RANGE_WL=1.788970
_3DPLANE=0
_2THETACOUNTS
   0.0000       518
   5.0000       507
  10.0000       539
  15.0000       535
  20.0000       512
  25.0000       637
  30.0000       528
  35.0000       772
  40.0000       642
  45.0000       613
  50.0000       550
  55.0000       563
  60.0000       501
  65.0000       450
  70.0000       389
  75.0000       390
  80.0000       406
  85.0000       399
  90.0000       381
  95.0000       327
 100.0000       368
 105.0000       350
 110.0000       453
 115.0000       443
 120.0000       511
 125.0000       537
 130.0000       602
 135.0000       632
 140.0000       643
 145.0000       554
 150.0000       532
 155.0000       576
 160.0000       558
 165.0000       656
 170.0000       561
 175.0000       448
 180.0000       551
 185.0000       538
 190.0000       439
 195.0000       560
 200.0000       544
 205.0000       554
 210.0000       642
 215.0000       632
 220.0000       672
 225.0000       913
 230.0000       715
 235.0000       612
 240.0000       563
 245.0000       509
 250.0000       452
 255.0000       342
 260.0000       450
 265.0000       436
 270.0000       318
 275.0000       466
 280.0000       433
 285.0000       371
 290.0000       361
 295.0000       432
 300.0000       634
 305.0000       682
 310.0000       735
 315.0000       655
 320.0000       688
 325.0000       643
 330.0000       544
 335.0000       532
 340.0000       588
 345.0000       576
 350.0000       602
 355.0000       505
; (Data for Range number 11)
_DRIVE='PHI'
_STEPTIME=2.000000
_STEPSIZE=5.000000
_STEPMODE='C'
_START=0.000000
_THETA=26.1065
_2THETA=52.213
_KHI=50
_PHI=0.000000
_X=0.000000
_Y=0.000000
_Z=0.000000
_DIVERGENCE=3.000000
_ANTISCATTER=3.000000
_DETECTOR=1
; S.C.
_HV=687
_GAIN=80
_LLD=0.690000
_ULD=1.866000
_DETECTORSLIT='unkn'
_AUX1=0.000000
_AUX2=0.000000
_AUX3=0.000000
_TIMESTARTED=2065
_TEMP_RATE=0.000000
_TEMP_DELAY=0.000000
_KV=35
_MA=40
_RANGE_WL=1.788970
_3DPLANE=0
_2THETACOUNTS
   0.0000       441
   5.0000       386
  10.0000       483
  15.0000       486
  20.0000       488
  25.0000       494
  30.0000       471
  35.0000       434
  40.0000       470
  45.0000       360
  50.0000       362
  55.0000       302
  60.0000       269
  65.0000       320
  70.0000       305
  75.0000       276
  80.0000       288
  85.0000       326
  90.0000       289
  95.0000       270
 100.0000       316
 105.0000       299
 110.0000       297
 115.0000       317
 120.0000       359
 125.0000       429
 130.0000       386
 135.0000       370
 140.0000       393
 145.0000       494
 150.0000       440
 155.0000       434
 160.0000       341
 165.0000       469
 170.0000       437
 175.0000       390
 180.0000       351
 185.0000       381
 190.0000       336
 195.0000       357
 200.0000       431
 205.0000       415
 210.0000       405
 215.0000       403
 220.0000       422
 225.0000       380
 230.0000       374
 235.0000       318
 240.0000       326
 245.0000       310
 250.0000       320
 255.0000       305
 260.0000       288
 265.0000       294
 270.0000       271
 275.0000       296
 280.0000       327
 285.0000       341
 290.0000       314
 295.0000       339
 300.0000       383
 305.0000       310
 310.0000       427
 315.0000       455
 320.0000       435
 325.0000       402
 330.0000       501
 335.0000       476
 340.0000       480
 345.0000       422
 350.0000       399
 355.0000       443
; (Data for Range number 12)
_DRIVE='PHI'
_STEPTIME=2.000000
_STEPSIZE=5.000000
_STEPMODE='C'
_START=0.000000
_THETA=26.1065
_2THETA=52.213
_KHI=55
_PHI=0.000000
_X=0.000000
_Y=0.000000
_Z=0.000000
_DIVERGENCE=3.000000
_ANTISCATTER=3.000000
_DETECTOR=1
; S.C.
_HV=687
_GAIN=80
_LLD=0.690000
_ULD=1.866000
_DETECTORSLIT='unkn'
_AUX1=0.000000
_AUX2=0.000000
_AUX3=0.000000
_TIMESTARTED=2270
_TEMP_RATE=0.000000
_TEMP_DELAY=0.000000
_KV=35
_MA=40
_RANGE_WL=1.788970
_3DPLANE=0
_2THETACOUNTS
   0.0000       304
   5.0000       322
  10.0000       359
  15.0000       327
  20.0000       316
  25.0000       296
  30.0000       344
  35.0000       347
  40.0000       317
  45.0000       340
  50.0000       263
  55.0000       259
  60.0000       259
  65.0000       281
  70.0000       252
  75.0000       231
  80.0000       232
  85.0000       262
  90.0000       255
  95.0000       234
 100.0000       256
 105.0000       218
 110.0000       246
 115.0000       285
 120.0000       223
 125.0000       216
 130.0000       312
 135.0000       263
 140.0000       330
 145.0000       375
 150.0000       325
 155.0000       305
 160.0000       310
 165.0000       286
 170.0000       309
 175.0000       336
 180.0000       308
 185.0000       317
 190.0000       273
 195.0000       290
 200.0000       320
 205.0000       313
 210.0000       298
 215.0000       302
 220.0000       286
 225.0000       277
 230.0000       265
 235.0000       296
 240.0000       273
 245.0000       241
 250.0000       210
 255.0000       271
 260.0000       236
 265.0000       287
 270.0000       199
 275.0000       240
 280.0000       282
 285.0000       252
 290.0000       246
 295.0000       276
 300.0000       215
 305.0000       311
 310.0000       314
 315.0000       269
 320.0000       331
 325.0000       345
 330.0000       396
 335.0000       284
 340.0000       327
 345.0000       313
 350.0000       298
 355.0000       313
; (Data for Range number 13)
_DRIVE='PHI'
_STEPTIME=2.000000
_STEPSIZE=5.000000
_STEPMODE='C'
_START=0.000000
_THETA=26.1065
_2THETA=52.213
_KHI=60
_PHI=0.000000
_X=0.000000
_Y=0.000000
_Z=0.000000
_DIVERGENCE=3.000000
_ANTISCATTER=3.000000
_DETECTOR=1
; S.C.
_HV=687
_GAIN=80
_LLD=0.690000
_ULD=1.866000
_DETECTORSLIT='unkn'
_AUX1=0.000000
_AUX2=0.000000
_AUX3=0.000000
_TIMESTARTED=2475
_TEMP_RATE=0.000000
_TEMP_DELAY=0.000000
_KV=35
_MA=40
_RANGE_WL=1.788970
_3DPLANE=0
_2THETACOUNTS
   0.0000       243
   5.0000       293
  10.0000       274
  15.0000       268
  20.0000       329
  25.0000       279
  30.0000       239
  35.0000       317
  40.0000       243
  45.0000       245
  50.0000       264
  55.0000       240
  60.0000       233
  65.0000       236
  70.0000       203
  75.0000       231
  80.0000       242
  85.0000       205
  90.0000       216
  95.0000       250
 100.0000       197
 105.0000       223
 110.0000       203
 115.0000       224
 120.0000       228
 125.0000       257
 130.0000       241
 135.0000       260
 140.0000       254
 145.0000       266
 150.0000       265
 155.0000       248
 160.0000       251
 165.0000       250
 170.0000       219
 175.0000       295
 180.0000       240
 185.0000       238
 190.0000       261
 195.0000       257
 200.0000       253
 205.0000       286
 210.0000       275
 215.0000       254
 220.0000       277
 225.0000       252
 230.0000       228
 235.0000       225
 240.0000       253
 245.0000       238
 250.0000       231
 255.0000       227
 260.0000       243
 265.0000       229
 270.0000       260
 275.0000       241
 280.0000       234
 285.0000       208
 290.0000       247
 295.0000       259
 300.0000       219
 305.0000       265
 310.0000       231
 315.0000       239
 320.0000       286
 325.0000       274
 330.0000       272
 335.0000       269
 340.0000       272
 345.0000       298
 350.0000       270
 355.0000       266
; (Data for Range number 14)
_DRIVE='PHI'
_STEPTIME=2.000000
_STEPSIZE=5.000000
_STEPMODE='C'
_START=0.000000
_THETA=26.1065
_2THETA=52.213
_KHI=65
_PHI=0.000000
_X=0.000000
_Y=0.000000
_Z=0.000000
_DIVERGENCE=3.000000
_ANTISCATTER=3.000000
_DETECTOR=1
; S.C.
_HV=687
_GAIN=80
_LLD=0.690000
_ULD=1.866000
_DETECTORSLIT='unkn'
_AUX1=0.000000
_AUX2=0.000000
_AUX3=0.000000
_TIMESTARTED=2680
_TEMP_RATE=0.000000
_TEMP_DELAY=0.000000
_KV=35
_MA=40
_RANGE_WL=1.788970
_3DPLANE=0
_2THETACOUNTS
   0.0000       208
   5.0000       211
  10.0000       225
  15.0000       221
  20.0000       229
  25.0000       222
  30.0000       236
  35.0000       198
  40.0000       221
  45.0000       197
  50.0000       211
  55.0000       242
  60.0000       203
  65.0000       200
  70.0000       217
  75.0000       169
  80.0000       213
  85.0000       194
  90.0000       218
  95.0000       200
 100.0000       221
 105.0000       203
 110.0000       214
 115.0000       186
 120.0000       207
 125.0000       198
 130.0000       184
 135.0000       211
 140.0000       197
 145.0000       202
 150.0000       198
 155.0000       235
 160.0000       237
 165.0000       234
 170.0000       239
 175.0000       212
 180.0000       188
 185.0000       219
 190.0000       195
 195.0000       221
 200.0000       205
 205.0000       185
 210.0000       222
 215.0000       204
 220.0000       201
 225.0000       209
 230.0000       212
 235.0000       211
 240.0000       230
 245.0000       206
 250.0000       199
 255.0000       213
 260.0000       210
 265.0000       189
 270.0000       226
 275.0000       218
 280.0000       208
 285.0000       219
 290.0000       221
 295.0000       191
 300.0000       217
 305.0000       213
 310.0000       212
 315.0000       219
 320.0000       221
 325.0000       199
 330.0000       217
 335.0000       236
 340.0000       224
 345.0000       210
 350.0000       215
 355.0000       215
; (Data for Range number 15)
_DRIVE='PHI'
_STEPTIME=2.000000
_STEPSIZE=5.000000
_STEPMODE='C'
_START=0.000000
_THETA=26.1065
_2THETA=52.213
_KHI=70
_PHI=0.000000
_X=0.000000
_Y=0.000000
_Z=0.000000
_DIVERGENCE=3.000000
_ANTISCATTER=3.000000
_DETECTOR=1
; S.C.
_HV=687
_GAIN=80
_LLD=0.690000
_ULD=1.866000
_DETECTORSLIT='unkn'
_AUX1=0.000000
_AUX2=0.000000
_AUX3=0.000000
_TIMESTARTED=2885
_TEMP_RATE=0.000000
_TEMP_DELAY=0.000000
_KV=35
_MA=40
_RANGE_WL=1.788970
_3DPLANE=0
_2THETACOUNTS
   0.0000       209
   5.0000       206
  10.0000       174
  15.0000       182
  20.0000       212
  25.0000       163
  30.0000       181
  35.0000       189
  40.0000       180
  45.0000       167
  50.0000       165
  55.0000       175
  60.0000       186
  65.0000       173
  70.0000       167
  75.0000       159
  80.0000       190
  85.0000       172
  90.0000       167
  95.0000       189
 100.0000       173
 105.0000       179
 110.0000       166
 115.0000       176
 120.0000       175
 125.0000       147
 130.0000       172
 135.0000       176
 140.0000       213
 145.0000       194
 150.0000       204
 155.0000       159
 160.0000       191
 165.0000       192
 170.0000       176
 175.0000       164
 180.0000       162
 185.0000       200
 190.0000       181
 195.0000       165
 200.0000       157
 205.0000       160
 210.0000       182
 215.0000       168
 220.0000       177
 225.0000       181
 230.0000       179
 235.0000       167
 240.0000       186
 245.0000       176
 250.0000       187
 255.0000       180
 260.0000       162
 265.0000       182
 270.0000       150
 275.0000       173
 280.0000       171
 285.0000       172
 290.0000       177
 295.0000       168
 300.0000       197
 305.0000       168
 310.0000       172
 315.0000       198
 320.0000       164
 325.0000       194
 330.0000       192
 335.0000       168
 340.0000       169
 345.0000       188
 350.0000       191
 355.0000       210
; (Data for Range number 16)
_DRIVE='PHI'
_STEPTIME=2.000000
_STEPSIZE=5.000000
_STEPMODE='C'
_START=0.000000
_THETA=26.1065
_2THETA=52.213
_KHI=75
_PHI=0.000000
_X=0.000000
_Y=0.000000
_Z=0.000000
_DIVERGENCE=3.000000
_ANTISCATTER=3.000000
_DETECTOR=1
; S.C.
_HV=687
_GAIN=80
_LLD=0.690000
_ULD=1.866000
_DETECTORSLIT='unkn'
_AUX1=0.000000
_AUX2=0.000000
_AUX3=0.000000
_TIMESTARTED=3090
_TEMP_RATE=0.000000
_TEMP_DELAY=0.000000
_KV=35
_MA=40
_RANGE_WL=1.788970
_3DPLANE=0
_2THETACOUNTS
   0.0000       151
   5.0000       123
  10.0000       132
  15.0000       158
  20.0000       148
  25.0000       120
  30.0000       152
  35.0000       137
  40.0000       137
  45.0000       137
  50.0000       152
  55.0000       142
  60.0000       145
  65.0000       147
  70.0000       140
  75.0000       139
  80.0000       148
  85.0000       159
  90.0000       156
  95.0000       143
 100.0000       142
 105.0000       154
 110.0000       164
 115.0000       157
 120.0000       142
 125.0000       127
 130.0000       154
 135.0000       141
 140.0000       125
 145.0000       131
 150.0000       128
 155.0000       130
 160.0000       156
 165.0000       150
 170.0000       102
 175.0000       119
 180.0000       155
 185.0000       148
 190.0000       137
 195.0000       154
 200.0000       136
 205.0000       153
 210.0000       150
 215.0000       143
 220.0000       138
 225.0000       145
 230.0000       149
 235.0000       140
 240.0000       126
 245.0000       141
 250.0000       137
 255.0000       137
 260.0000       153
 265.0000       122
 270.0000       137
 275.0000       156
 280.0000       154
 285.0000       144
 290.0000       162
 295.0000       141
 300.0000       127
 305.0000       120
 310.0000       155
 315.0000       145
 320.0000       151
 325.0000       128
 330.0000       168
 335.0000       143
 340.0000       149
 345.0000       143
 350.0000       124
 355.0000       156
; (Data for Range number 17)
_DRIVE='PHI'
_STEPTIME=2.000000
_STEPSIZE=5.000000
_STEPMODE='C'
_START=0.000000
_THETA=26.1065
_2THETA=52.213
_KHI=80
_PHI=0.000000
_X=0.000000
_Y=0.000000
_Z=0.000000
_DIVERGENCE=3.000000
_ANTISCATTER=3.000000
_DETECTOR=1
; S.C.
_HV=687
_GAIN=80
_LLD=0.690000
_ULD=1.866000
_DETECTORSLIT='unkn'
_AUX1=0.000000
_AUX2=0.000000
_AUX3=0.000000
_TIMESTARTED=3295
_TEMP_RATE=0.000000
_TEMP_DELAY=0.000000
_KV=35
_MA=40
_RANGE_WL=1.788970
_3DPLANE=0
_2THETACOUNTS
   0.0000       101
   5.0000       101
  10.0000       104
  15.0000        92
  20.0000       100
  25.0000        90
  30.0000       102
  35.0000       104
  40.0000        88
  45.0000        84
  50.0000        98
  55.0000        85
  60.0000       110
  65.0000        94
  70.0000        91
  75.0000        80
  80.0000       106
  85.0000        80
  90.0000        95
  95.0000       100
 100.0000       100
 105.0000       107
 110.0000        98
 115.0000       100
 120.0000       111
 125.0000       100
 130.0000        95
 135.0000        69
 140.0000        90
 145.0000        92
 150.0000        77
 155.0000        87
 160.0000        87
 165.0000        90
 170.0000        78
 175.0000       107
 180.0000       100
 185.0000        78
 190.0000        90
 195.0000       117
 200.0000       103
 205.0000        87
 210.0000        98
 215.0000        78
 220.0000        69
 225.0000        96
 230.0000        95
 235.0000        88
 240.0000        93
 245.0000       103
 250.0000       109
 255.0000        81
 260.0000        86
 265.0000        95
 270.0000       120
 275.0000        91
 280.0000       101
 285.0000        87
 290.0000       115
 295.0000       107
 300.0000       101
 305.0000        94
 310.0000        89
 315.0000        85
 320.0000       103
 325.0000        96
 330.0000       100
 335.0000       100
 340.0000        82
 345.0000       103
 350.0000       101
 355.0000        98
; (Data for Range number 18)
_DRIVE='PHI'
_STEPTIME=20
_STEPSIZE=5.000000
_STEPMODE='S'
_START=0.000000
_THETA=23
_2THETA=46
_KHI=0.000000
_PHI=0.000000
_X=0.000000
_Y=0.000000
_Z=0.000000
_DIVERGENCE=3.000000
_ANTISCATTER=3.000000
_DETECTOR=1
; S.C.
_HV=687
_GAIN=80
_LLD=0.690000
_ULD=1.866000
_DETECTORSLIT='unkn'
_AUX1=0.000000
_AUX2=0.000000
_AUX3=0.000000
_TIMESTARTED=3497
_TEMP_RATE=0.000000
_TEMP_DELAY=0.000000
_KV=35
_MA=40
_RANGE_WL=1.788970
_3DPLANE=0
_2THETACOUNTS
   0.0000      1284
; (Data for Range number 19)
_DRIVE='PHI'
_STEPTIME=20
_STEPSIZE=5.000000
_STEPMODE='S'
_START=0.000000
_THETA=23
_2THETA=46
_KHI=5.000000
_PHI=0.000000
_X=0.000000
_Y=0.000000
_Z=0.000000
_DIVERGENCE=3.000000
_ANTISCATTER=3.000000
_DETECTOR=1
; S.C.
_HV=687
_GAIN=80
_LLD=0.690000
_ULD=1.866000
_DETECTORSLIT='unkn'
_AUX1=0.000000
_AUX2=0.000000
_AUX3=0.000000
_TIMESTARTED=3522
_TEMP_RATE=0.000000
_TEMP_DELAY=0.000000
_KV=35
_MA=40
_RANGE_WL=1.788970
_3DPLANE=0
_2THETACOUNTS
   0.0000      1362
; (Data for Range number 20)
_DRIVE='PHI'
_STEPTIME=20
_STEPSIZE=5.000000
_STEPMODE='S'
_START=0.000000
_THETA=23
_2THETA=46
_KHI=10
_PHI=0.000000
_X=0.000000
_Y=0.000000
_Z=0.000000
_DIVERGENCE=3.000000
_ANTISCATTER=3.000000
_DETECTOR=1
; S.C.
_HV=687
_GAIN=80
_LLD=0.690000
_ULD=1.866000
_DETECTORSLIT='unkn'
_AUX1=0.000000
_AUX2=0.000000
_AUX3=0.000000
_TIMESTARTED=3546
_TEMP_RATE=0.000000
_TEMP_DELAY=0.000000
_KV=35
_MA=40
_RANGE_WL=1.788970
_3DPLANE=0
_2THETACOUNTS
   0.0000      1275
; (Data for Range number 21)
_DRIVE='PHI'
_STEPTIME=20
_STEPSIZE=5.000000
_STEPMODE='S'
_START=0.000000
_THETA=23
_2THETA=46
_KHI=15
_PHI=0.000000
_X=0.000000
_Y=0.000000
_Z=0.000000
_DIVERGENCE=3.000000
_ANTISCATTER=3.000000
_DETECTOR=1
; S.C.
_HV=687
_GAIN=80
_LLD=0.690000
_ULD=1.866000
_DETECTORSLIT='unkn'
_AUX1=0.000000
_AUX2=0.000000
_AUX3=0.000000
_TIMESTARTED=3571
_TEMP_RATE=0.000000
_TEMP_DELAY=0.000000
_KV=35
_MA=40
_RANGE_WL=1.788970
_3DPLANE=0
_2THETACOUNTS
   0.0000      1376
; (Data for Range number 22)
_DRIVE='PHI'
_STEPTIME=20
_STEPSIZE=5.000000
_STEPMODE='S'
_START=0.000000
_THETA=23
_2THETA=46
_KHI=20
_PHI=0.000000
_X=0.000000
_Y=0.000000
_Z=0.000000
_DIVERGENCE=3.000000
_ANTISCATTER=3.000000
_DETECTOR=1
; S.C.
_HV=687
_GAIN=80
_LLD=0.690000
_ULD=1.866000
_DETECTORSLIT='unkn'
_AUX1=0.000000
_AUX2=0.000000
_AUX3=0.000000
_TIMESTARTED=3596
_TEMP_RATE=0.000000
_TEMP_DELAY=0.000000
_KV=35
_MA=40
_RANGE_WL=1.788970
_3DPLANE=0
_2THETACOUNTS
   0.0000      1376
; (Data for Range number 23)
_DRIVE='PHI'
_STEPTIME=20
_STEPSIZE=5.000000
_STEPMODE='S'
_START=0.000000
_THETA=23
_2THETA=46
_KHI=25
_PHI=0.000000
_X=0.000000
_Y=0.000000
_Z=0.000000
_DIVERGENCE=3.000000
_ANTISCATTER=3.000000
_DETECTOR=1
; S.C.
_HV=687
_GAIN=80
_LLD=0.690000
_ULD=1.866000
_DETECTORSLIT='unkn'
_AUX1=0.000000
_AUX2=0.000000
_AUX3=0.000000
_TIMESTARTED=3621
_TEMP_RATE=0.000000
_TEMP_DELAY=0.000000
_KV=35
_MA=40
_RANGE_WL=1.788970
_3DPLANE=0
_2THETACOUNTS
   0.0000      1382
; (Data for Range number 24)
_DRIVE='PHI'
_STEPTIME=20
_STEPSIZE=5.000000
_STEPMODE='S'
_START=0.000000
_THETA=23
_2THETA=46
_KHI=30
_PHI=0.000000
_X=0.000000
_Y=0.000000
_Z=0.000000
_DIVERGENCE=3.000000
_ANTISCATTER=3.000000
_DETECTOR=1
; S.C.
_HV=687
_GAIN=80
_LLD=0.690000
_ULD=1.866000
_DETECTORSLIT='unkn'
_AUX1=0.000000
_AUX2=0.000000
_AUX3=0.000000
_TIMESTARTED=3646
_TEMP_RATE=0.000000
_TEMP_DELAY=0.000000
_KV=35
_MA=40
_RANGE_WL=1.788970
_3DPLANE=0
_2THETACOUNTS
   0.0000      1341
; (Data for Range number 25)
_DRIVE='PHI'
_STEPTIME=20
_STEPSIZE=5.000000
_STEPMODE='S'
_START=0.000000
_THETA=23
_2THETA=46
_KHI=35
_PHI=0.000000
_X=0.000000
_Y=0.000000
_Z=0.000000
_DIVERGENCE=3.000000
_ANTISCATTER=3.000000
_DETECTOR=1
; S.C.
_HV=687
_GAIN=80
_LLD=0.690000
_ULD=1.866000
_DETECTORSLIT='unkn'
_AUX1=0.000000
_AUX2=0.000000
_AUX3=0.000000
_TIMESTARTED=3671
_TEMP_RATE=0.000000
_TEMP_DELAY=0.000000
_KV=35
_MA=40
_RANGE_WL=1.788970
_3DPLANE=0
_2THETACOUNTS
   0.0000      1305
; (Data for Range number 26)
_DRIVE='PHI'
_STEPTIME=20
_STEPSIZE=5.000000
_STEPMODE='S'
_START=0.000000
_THETA=23
_2THETA=46
_KHI=40
_PHI=0.000000
_X=0.000000
_Y=0.000000
_Z=0.000000
_DIVERGENCE=3.000000
_ANTISCATTER=3.000000
_DETECTOR=1
; S.C.
_HV=687
_GAIN=80
_LLD=0.690000
_ULD=1.866000
_DETECTORSLIT='unkn'
_AUX1=0.000000
_AUX2=0.000000
_AUX3=0.000000
_TIMESTARTED=3695
_TEMP_RATE=0.000000
_TEMP_DELAY=0.000000
_KV=35
_MA=40
_RANGE_WL=1.788970
_3DPLANE=0
_2THETACOUNTS
   0.0000      1282
; (Data for Range number 27)
_DRIVE='PHI'
_STEPTIME=20
_STEPSIZE=5.000000
_STEPMODE='S'
_START=0.000000
_THETA=23
_2THETA=46
_KHI=45
_PHI=0.000000
_X=0.000000
_Y=0.000000
_Z=0.000000
_DIVERGENCE=3.000000
_ANTISCATTER=3.000000
_DETECTOR=1
; S.C.
_HV=687
_GAIN=80
_LLD=0.690000
_ULD=1.866000
_DETECTORSLIT='unkn'
_AUX1=0.000000
_AUX2=0.000000
_AUX3=0.000000
_TIMESTARTED=3720
_TEMP_RATE=0.000000
_TEMP_DELAY=0.000000
_KV=35
_MA=40
_RANGE_WL=1.788970
_3DPLANE=0
_2THETACOUNTS
   0.0000      1326
; (Data for Range number 28)
_DRIVE='PHI'
_STEPTIME=20
_STEPSIZE=5.000000
_STEPMODE='S'
_START=0.000000
_THETA=23
_2THETA=46
_KHI=50
_PHI=0.000000
_X=0.000000
_Y=0.000000
_Z=0.000000
_DIVERGENCE=3.000000
_ANTISCATTER=3.000000
_DETECTOR=1
; S.C.
_HV=687
_GAIN=80
_LLD=0.690000
_ULD=1.866000
_DETECTORSLIT='unkn'
_AUX1=0.000000
_AUX2=0.000000
_AUX3=0.000000
_TIMESTARTED=3746
_TEMP_RATE=0.000000
_TEMP_DELAY=0.000000
_KV=35
_MA=40
_RANGE_WL=1.788970
_3DPLANE=0
_2THETACOUNTS
   0.0000      1312
; (Data for Range number 29)
_DRIVE='PHI'
_STEPTIME=20
_STEPSIZE=5.000000
_STEPMODE='S'
_START=0.000000
_THETA=23
_2THETA=46
_KHI=55
_PHI=0.000000
_X=0.000000
_Y=0.000000
_Z=0.000000
_DIVERGENCE=3.000000
_ANTISCATTER=3.000000
_DETECTOR=1
; S.C.
_HV=687
_GAIN=80
_LLD=0.690000
_ULD=1.866000
_DETECTORSLIT='unkn'
_AUX1=0.000000
_AUX2=0.000000
_AUX3=0.000000
_TIMESTARTED=3770
_TEMP_RATE=0.000000
_TEMP_DELAY=0.000000
_KV=35
_MA=40
_RANGE_WL=1.788970
_3DPLANE=0
_2THETACOUNTS
   0.0000      1285
; (Data for Range number 30)
_DRIVE='PHI'
_STEPTIME=20
_STEPSIZE=5.000000
_STEPMODE='S'
_START=0.000000
_THETA=23
_2THETA=46
_KHI=60
_PHI=0.000000
_X=0.000000
_Y=0.000000
_Z=0.000000
_DIVERGENCE=3.000000
_ANTISCATTER=3.000000
_DETECTOR=1
; S.C.
_HV=687
_GAIN=80
_LLD=0.690000
_ULD=1.866000
_DETECTORSLIT='unkn'
_AUX1=0.000000
_AUX2=0.000000
_AUX3=0.000000
_TIMESTARTED=3795
_TEMP_RATE=0.000000
_TEMP_DELAY=0.000000
_KV=35
_MA=40
_RANGE_WL=1.788970
_3DPLANE=0
_2THETACOUNTS
   0.0000      1262
; (Data for Range number 31)
_DRIVE='PHI'
_STEPTIME=20
_STEPSIZE=5.000000
_STEPMODE='S'
_START=0.000000
_THETA=23
_2THETA=46
_KHI=65
_PHI=0.000000
_X=0.000000
_Y=0.000000
_Z=0.000000
_DIVERGENCE=3.000000
_ANTISCATTER=3.000000
_DETECTOR=1
; S.C.
_HV=687
_GAIN=80
_LLD=0.690000
_ULD=1.866000
[...]
  80.0000        93
  85.0000        84
  90.0000       108
  95.0000       101
 100.0000        97
 105.0000        84
 110.0000        95
 115.0000       102
 120.0000        98
 125.0000        88
 130.0000        88
 135.0000        78
 140.0000        93
 145.0000       115
 150.0000        97
 155.0000        94
 160.0000       107
 165.0000        98
 170.0000        95
 175.0000        91
 180.0000        87
 185.0000        90
 190.0000       113
 195.0000        98
 200.0000        93
 205.0000        98
 210.0000        88
 215.0000       106
 220.0000        96
 225.0000        97
 230.0000        92
 235.0000       107
 240.0000        97
 245.0000        93
 250.0000       100
 255.0000        89
 260.0000        94
 265.0000        86
 270.0000       107
 275.0000        74
 280.0000        93
 285.0000       107
 290.0000       101
 295.0000       101
 300.0000       101
 305.0000        96
 310.0000        89
 315.0000        99
 320.0000       105
 325.0000        91
 330.0000        93
 335.0000        91
 340.0000       111
 345.0000       103
 350.0000        92
 355.0000       110
; (Data for Range number 119)
_DRIVE='PHI'
_STEPTIME=2.000000
_STEPSIZE=5.000000
_STEPMODE='C'
_START=0.000000
_THETA=49.8475
_2THETA=99.695
_KHI=80
_PHI=0.000000
_X=0.000000
_Y=0.000000
_Z=0.000000
_DIVERGENCE=3.000000
_ANTISCATTER=3.000000
_DETECTOR=1
; S.C.
_HV=687
_GAIN=80
_LLD=0.690000
_ULD=1.866000
_DETECTORSLIT='unkn'
_AUX1=0.000000
_AUX2=0.000000
_AUX3=0.000000
_TIMESTARTED=12022
_TEMP_RATE=0.000000
_TEMP_DELAY=0.000000
_KV=35
_MA=40
_RANGE_WL=1.788970
_3DPLANE=0
_2THETACOUNTS
   0.0000        48
   5.0000        70
  10.0000        63
  15.0000        60
  20.0000        52
  25.0000        52
  30.0000        58
  35.0000        42
  40.0000        68
  45.0000        57
  50.0000        70
  55.0000        57
  60.0000        54
  65.0000        77
  70.0000        67
  75.0000        62
  80.0000        79
  85.0000        62
  90.0000        73
  95.0000        69
 100.0000        65
 105.0000        55
 110.0000        56
 115.0000        52
 120.0000        53
 125.0000        65
 130.0000        60
 135.0000        68
 140.0000        68
 145.0000        67
 150.0000        52
 155.0000        66
 160.0000        63
 165.0000        61
 170.0000        62
 175.0000        61
 180.0000        62
 185.0000        66
 190.0000        67
 195.0000        66
 200.0000        69
 205.0000        61
 210.0000        60
 215.0000        62
 220.0000        77
 225.0000        61
 230.0000        57
 235.0000        56
 240.0000        55
 245.0000        80
 250.0000        71
 255.0000        58
 260.0000        69
 265.0000        69
 270.0000        55
 275.0000        58
 280.0000        55
 285.0000        60
 290.0000        60
 295.0000        62
 300.0000        50
 305.0000        70
 310.0000        60
 315.0000        68
 320.0000        65
 325.0000        66
 330.0000        60
 335.0000        63
 340.0000        68
 345.0000        65
 350.0000        68
 355.0000        68
; (Data for Range number 120)
_DRIVE='PHI'
_STEPTIME=20
_STEPSIZE=5.000000
_STEPMODE='S'
_START=0.000000
_THETA=47.5
_2THETA=95
_KHI=0.000000
_PHI=0.000000
_X=0.000000
_Y=0.000000
_Z=0.000000
_DIVERGENCE=3.000000
_ANTISCATTER=3.000000
_DETECTOR=1
; S.C.
_HV=687
_GAIN=80
_LLD=0.690000
_ULD=1.866000
_DETECTORSLIT='unkn'
_AUX1=0.000000
_AUX2=0.000000
_AUX3=0.000000
_TIMESTARTED=12224
_TEMP_RATE=0.000000
_TEMP_DELAY=0.000000
_KV=35
_MA=40
_RANGE_WL=1.788970
_3DPLANE=0
_2THETACOUNTS
   0.0000      1568
; (Data for Range number 121)
_DRIVE='PHI'
_STEPTIME=20
_STEPSIZE=5.000000
_STEPMODE='S'
_START=0.000000
_THETA=47.5
_2THETA=95
_KHI=5.000000
_PHI=0.000000
_X=0.000000
_Y=0.000000
_Z=0.000000
_DIVERGENCE=3.000000
_ANTISCATTER=3.000000
_DETECTOR=1
; S.C.
_HV=687
_GAIN=80
_LLD=0.690000
_ULD=1.866000
_DETECTORSLIT='unkn'
_AUX1=0.000000
_AUX2=0.000000
_AUX3=0.000000
_TIMESTARTED=12249
_TEMP_RATE=0.000000
_TEMP_DELAY=0.000000
_KV=35
_MA=40
_RANGE_WL=1.788970
_3DPLANE=0
_2THETACOUNTS
   0.0000      1595
; (Data for Range number 122)
_DRIVE='PHI'
_STEPTIME=20
_STEPSIZE=5.000000
_STEPMODE='S'
_START=0.000000
_THETA=47.5
_2THETA=95
_KHI=10
_PHI=0.000000
_X=0.000000
_Y=0.000000
_Z=0.000000
_DIVERGENCE=3.000000
_ANTISCATTER=3.000000
_DETECTOR=1
; S.C.
_HV=687
_GAIN=80
_LLD=0.690000
_ULD=1.866000
_DETECTORSLIT='unkn'
_AUX1=0.000000
_AUX2=0.000000
_AUX3=0.000000
_TIMESTARTED=12273
_TEMP_RATE=0.000000
_TEMP_DELAY=0.000000
_KV=35
_MA=40
_RANGE_WL=1.788970
_3DPLANE=0
_2THETACOUNTS
   0.0000      1568
; (Data for Range number 123)
_DRIVE='PHI'
_STEPTIME=20
_STEPSIZE=5.000000
_STEPMODE='S'
_START=0.000000
_THETA=47.5
_2THETA=95
_KHI=15
_PHI=0.000000
_X=0.000000
_Y=0.000000
_Z=0.000000
_DIVERGENCE=3.000000
_ANTISCATTER=3.000000
_DETECTOR=1
; S.C.
_HV=687
_GAIN=80
_LLD=0.690000
_ULD=1.866000
_DETECTORSLIT='unkn'
_AUX1=0.000000
_AUX2=0.000000
_AUX3=0.000000
_TIMESTARTED=12299
_TEMP_RATE=0.000000
_TEMP_DELAY=0.000000
_KV=35
_MA=40
_RANGE_WL=1.788970
_3DPLANE=0
_2THETACOUNTS
   0.0000      1506
; (Data for Range number 124)
_DRIVE='PHI'
_STEPTIME=20
_STEPSIZE=5.000000
_STEPMODE='S'
_START=0.000000
_THETA=47.5
_2THETA=95
_KHI=20
_PHI=0.000000
_X=0.000000
_Y=0.000000
_Z=0.000000
_DIVERGENCE=3.000000
_ANTISCATTER=3.000000
_DETECTOR=1
; S.C.
_HV=687
_GAIN=80
_LLD=0.690000
_ULD=1.866000
_DETECTORSLIT='unkn'
_AUX1=0.000000
_AUX2=0.000000
_AUX3=0.000000
_TIMESTARTED=12323
_TEMP_RATE=0.000000
_TEMP_DELAY=0.000000
_KV=35
_MA=40
_RANGE_WL=1.788970
_3DPLANE=0
_2THETACOUNTS
   0.0000      1611
; (Data for Range number 125)
_DRIVE='PHI'
_STEPTIME=20
_STEPSIZE=5.000000
_STEPMODE='S'
_START=0.000000
_THETA=47.5
_2THETA=95
_KHI=25
_PHI=0.000000
_X=0.000000
_Y=0.000000
_Z=0.000000
_DIVERGENCE=3.000000
_ANTISCATTER=3.000000
_DETECTOR=1
; S.C.
_HV=687
_GAIN=80
_LLD=0.690000
_ULD=1.866000
_DETECTORSLIT='unkn'
_AUX1=0.000000
_AUX2=0.000000
_AUX3=0.000000
_TIMESTARTED=12348
_TEMP_RATE=0.000000
_TEMP_DELAY=0.000000
_KV=35
_MA=40
_RANGE_WL=1.788970
_3DPLANE=0
_2THETACOUNTS
   0.0000      1528
; (Data for Range number 126)
_DRIVE='PHI'
_STEPTIME=20
_STEPSIZE=5.000000
_STEPMODE='S'
_START=0.000000
_THETA=47.5
_2THETA=95
_KHI=30
_PHI=0.000000
_X=0.000000
_Y=0.000000
_Z=0.000000
_DIVERGENCE=3.000000
_ANTISCATTER=3.000000
_DETECTOR=1
; S.C.
_HV=687
_GAIN=80
_LLD=0.690000
_ULD=1.866000
_DETECTORSLIT='unkn'
_AUX1=0.000000
_AUX2=0.000000
_AUX3=0.000000
_TIMESTARTED=12373
_TEMP_RATE=0.000000
_TEMP_DELAY=0.000000
_KV=35
_MA=40
_RANGE_WL=1.788970
_3DPLANE=0
_2THETACOUNTS
   0.0000      1526
; (Data for Range number 127)
_DRIVE='PHI'
_STEPTIME=20
_STEPSIZE=5.000000
_STEPMODE='S'
_START=0.000000
_THETA=47.5
_2THETA=95
_KHI=35
_PHI=0.000000
_X=0.000000
_Y=0.000000
_Z=0.000000
_DIVERGENCE=3.000000
_ANTISCATTER=3.000000
_DETECTOR=1
; S.C.
_HV=687
_GAIN=80
_LLD=0.690000
_ULD=1.866000
_DETECTORSLIT='unkn'
_AUX1=0.000000
_AUX2=0.000000
_AUX3=0.000000
_TIMESTARTED=12397
_TEMP_RATE=0.000000
_TEMP_DELAY=0.000000
_KV=35
_MA=40
_RANGE_WL=1.788970
_3DPLANE=0
_2THETACOUNTS
   0.0000      1594
; (Data for Range number 128)
_DRIVE='PHI'
_STEPTIME=20
_STEPSIZE=5.000000
_STEPMODE='S'
_START=0.000000
_THETA=47.5
_2THETA=95
_KHI=40
_PHI=0.000000
_X=0.000000
_Y=0.000000
_Z=0.000000
_DIVERGENCE=3.000000
_ANTISCATTER=3.000000
_DETECTOR=1
; S.C.
_HV=687
_GAIN=80
_LLD=0.690000
_ULD=1.866000
_DETECTORSLIT='unkn'
_AUX1=0.000000
_AUX2=0.000000
_AUX3=0.000000
_TIMESTARTED=12422
_TEMP_RATE=0.000000
_TEMP_DELAY=0.000000
_KV=35
_MA=40
_RANGE_WL=1.788970
_3DPLANE=0
_2THETACOUNTS
   0.0000      1473
; (Data for Range number 129)
_DRIVE='PHI'
_STEPTIME=20
_STEPSIZE=5.000000
_STEPMODE='S'
_START=0.000000
_THETA=47.5
_2THETA=95
_KHI=45
_PHI=0.000000
_X=0.000000
_Y=0.000000
_Z=0.000000
_DIVERGENCE=3.000000
_ANTISCATTER=3.000000
_DETECTOR=1
; S.C.
_HV=687
_GAIN=80
_LLD=0.690000
_ULD=1.866000
_DETECTORSLIT='unkn'
_AUX1=0.000000
_AUX2=0.000000
_AUX3=0.000000
_TIMESTARTED=12446
_TEMP_RATE=0.000000
_TEMP_DELAY=0.000000
_KV=35
_MA=40
_RANGE_WL=1.788970
_3DPLANE=0
_2THETACOUNTS
   0.0000      1402
; (Data for Range number 130)
_DRIVE='PHI'
_STEPTIME=20
_STEPSIZE=5.000000
_STEPMODE='S'
_START=0.000000
_THETA=47.5
_2THETA=95
_KHI=50
_PHI=0.000000
_X=0.000000
_Y=0.000000
_Z=0.000000
_DIVERGENCE=3.000000
_ANTISCATTER=3.000000
_DETECTOR=1
; S.C.
_HV=687
_GAIN=80
_LLD=0.690000
_ULD=1.866000
_DETECTORSLIT='unkn'
_AUX1=0.000000
_AUX2=0.000000
_AUX3=0.000000
_TIMESTARTED=12471
_TEMP_RATE=0.000000
_TEMP_DELAY=0.000000
_KV=35
_MA=40
_RANGE_WL=1.788970
_3DPLANE=0
_2THETACOUNTS
   0.0000      1421
; (Data for Range number 131)
_DRIVE='PHI'
_STEPTIME=20
_STEPSIZE=5.000000
_STEPMODE='S'
_START=0.000000
_THETA=47.5
_2THETA=95
_KHI=55
_PHI=0.000000
_X=0.000000
_Y=0.000000
_Z=0.000000
_DIVERGENCE=3.000000
_ANTISCATTER=3.000000
_DETECTOR=1
; S.C.
_HV=687
_GAIN=80
_LLD=0.690000
_ULD=1.866000
_DETECTORSLIT='unkn'
_AUX1=0.000000
_AUX2=0.000000
_AUX3=0.000000
_TIMESTARTED=12496
_TEMP_RATE=0.000000
_TEMP_DELAY=0.000000
_KV=35
_MA=40
_RANGE_WL=1.788970
_3DPLANE=0
_2THETACOUNTS
   0.0000      1373
; (Data for Range number 132)
_DRIVE='PHI'
_STEPTIME=20
_STEPSIZE=5.000000
_STEPMODE='S'
_START=0.000000
_THETA=47.5
_2THETA=95
_KHI=60
_PHI=0.000000
_X=0.000000
_Y=0.000000
_Z=0.000000
_DIVERGENCE=3.000000
_ANTISCATTER=3.000000
_DETECTOR=1
; S.C.
_HV=687
_GAIN=80
_LLD=0.690000
_ULD=1.866000
_DETECTORSLIT='unkn'
_AUX1=0.000000
_AUX2=0.000000
_AUX3=0.000000
_TIMESTARTED=12520
_TEMP_RATE=0.000000
_TEMP_DELAY=0.000000
_KV=35
_MA=40
_RANGE_WL=1.788970
_3DPLANE=0
_2THETACOUNTS
   0.0000      1298
; (Data for Range number 133)
_DRIVE='PHI'
_STEPTIME=20
_STEPSIZE=5.000000
_STEPMODE='S'
_START=0.000000
_THETA=47.5
_2THETA=95
_KHI=65
_PHI=0.000000
_X=0.000000
_Y=0.000000
_Z=0.000000
_DIVERGENCE=3.000000
_ANTISCATTER=3.000000
_DETECTOR=1
; S.C.
_HV=687
_GAIN=80
_LLD=0.690000
_ULD=1.866000
_DETECTORSLIT='unkn'
_AUX1=0.000000
_AUX2=0.000000
_AUX3=0.000000
_TIMESTARTED=12545
_TEMP_RATE=0.000000
_TEMP_DELAY=0.000000
_KV=35
_MA=40
_RANGE_WL=1.788970
_3DPLANE=0
_2THETACOUNTS
   0.0000      1221
; (Data for Range number 134)
_DRIVE='PHI'
_STEPTIME=20
_STEPSIZE=5.000000
_STEPMODE='S'
_START=0.000000
_THETA=47.5
_2THETA=95
_KHI=70
_PHI=0.000000
_X=0.000000
_Y=0.000000
_Z=0.000000
_DIVERGENCE=3.000000
_ANTISCATTER=3.000000
_DETECTOR=1
; S.C.
_HV=687
_GAIN=80
_LLD=0.690000
_ULD=1.866000
_DETECTORSLIT='unkn'
_AUX1=0.000000
_AUX2=0.000000
_AUX3=0.000000
_TIMESTARTED=12570
_TEMP_RATE=0.000000
_TEMP_DELAY=0.000000
_KV=35
_MA=40
_RANGE_WL=1.788970
_3DPLANE=0
_2THETACOUNTS
   0.0000      1220
; (Data for Range number 135)
_DRIVE='PHI'
_STEPTIME=20
_STEPSIZE=5.000000
_STEPMODE='S'
_START=0.000000
_THETA=47.5
_2THETA=95
_KHI=75
_PHI=0.000000
_X=0.000000
_Y=0.000000
_Z=0.000000
_DIVERGENCE=3.000000
_ANTISCATTER=3.000000
_DETECTOR=1
; S.C.
_HV=687
_GAIN=80
_LLD=0.690000
_ULD=1.866000
_DETECTORSLIT='unkn'
_AUX1=0.000000
_AUX2=0.000000
_AUX3=0.000000
_TIMESTARTED=12594
_TEMP_RATE=0.000000
_TEMP_DELAY=0.000000
_KV=35
_MA=40
_RANGE_WL=1.788970
_3DPLANE=0
_2THETACOUNTS
   0.0000      1001
; (Data for Range number 136)
_DRIVE='PHI'
_STEPTIME=20
_STEPSIZE=5.000000
_STEPMODE='S'
_START=0.000000
_THETA=47.5
_2THETA=95
_KHI=80
_PHI=0.000000
_X=0.000000
_Y=0.000000
_Z=0.000000
_DIVERGENCE=3.000000
_ANTISCATTER=3.000000
_DETECTOR=1
; S.C.
_HV=687
_GAIN=80
_LLD=0.690000
_ULD=1.866000
_DETECTORSLIT='unkn'
_AUX1=0.000000
_AUX2=0.000000
_AUX3=0.000000
_TIMESTARTED=12619
_TEMP_RATE=0.000000
_TEMP_DELAY=0.000000
_KV=35
_MA=40
_RANGE_WL=1.788970
_3DPLANE=0
_2THETACOUNTS
   0.0000       727
; (Data for Range number 137)
_DRIVE='PHI'
_STEPTIME=20
_STEPSIZE=5.000000
_STEPMODE='S'
_START=0.000000
_THETA=52.5
_2THETA=105
_KHI=0.000000
_PHI=0.000000
_X=0.000000
_Y=0.000000
_Z=0.000000
_DIVERGENCE=3.000000
_ANTISCATTER=3.000000
_DETECTOR=1
; S.C.
_HV=687
_GAIN=80
_LLD=0.690000
_ULD=1.866000
_DETECTORSLIT='unkn'
_AUX1=0.000000
_AUX2=0.000000
_AUX3=0.000000
_TIMESTARTED=12662
_TEMP_RATE=0.000000
_TEMP_DELAY=0.000000
_KV=35
_MA=40
_RANGE_WL=1.788970
_3DPLANE=0
_2THETACOUNTS
   0.0000      1545
; (Data for Range number 138)
_DRIVE='PHI'
_STEPTIME=20
_STEPSIZE=5.000000
_STEPMODE='S'
_START=0.000000
_THETA=52.5
_2THETA=105
_KHI=5.000000
_PHI=0.000000
_X=0.000000
_Y=0.000000
_Z=0.000000
_DIVERGENCE=3.000000
_ANTISCATTER=3.000000
_DETECTOR=1
; S.C.
_HV=687
_GAIN=80
_LLD=0.690000
_ULD=1.866000
_DETECTORSLIT='unkn'
_AUX1=0.000000
_AUX2=0.000000
_AUX3=0.000000
_TIMESTARTED=12687
_TEMP_RATE=0.000000
_TEMP_DELAY=0.000000
_KV=35
_MA=40
_RANGE_WL=1.788970
_3DPLANE=0
_2THETACOUNTS
   0.0000      1505
; (Data for Range number 139)
_DRIVE='PHI'
_STEPTIME=20
_STEPSIZE=5.000000
_STEPMODE='S'
_START=0.000000
_THETA=52.5
_2THETA=105
_KHI=10
_PHI=0.000000
_X=0.000000
_Y=0.000000
_Z=0.000000
_DIVERGENCE=3.000000
_ANTISCATTER=3.000000
_DETECTOR=1
; S.C.
_HV=687
_GAIN=80
_LLD=0.690000
_ULD=1.866000
_DETECTORSLIT='unkn'
_AUX1=0.000000
_AUX2=0.000000
_AUX3=0.000000
_TIMESTARTED=12711
_TEMP_RATE=0.000000
_TEMP_DELAY=0.000000
_KV=35
_MA=40
_RANGE_WL=1.788970
_3DPLANE=0
_2THETACOUNTS
   0.0000      1482
; (Data for Range number 140)
_DRIVE='PHI'
_STEPTIME=20
_STEPSIZE=5.000000
_STEPMODE='S'
_START=0.000000
_THETA=52.5
_2THETA=105
_KHI=15
_PHI=0.000000
_X=0.000000
_Y=0.000000
_Z=0.000000
_DIVERGENCE=3.000000
_ANTISCATTER=3.000000
_DETECTOR=1
; S.C.
_HV=687
_GAIN=80
_LLD=0.690000
_ULD=1.866000
_DETECTORSLIT='unkn'
_AUX1=0.000000
_AUX2=0.000000
_AUX3=0.000000
_TIMESTARTED=12736
_TEMP_RATE=0.000000
_TEMP_DELAY=0.000000
_KV=35
_MA=40
_RANGE_WL=1.788970
_3DPLANE=0
_2THETACOUNTS
   0.0000      1483
; (Data for Range number 141)
_DRIVE='PHI'
_STEPTIME=20
_STEPSIZE=5.000000
_STEPMODE='S'
_START=0.000000
_THETA=52.5
_2THETA=105
_KHI=20
_PHI=0.000000
_X=0.000000
_Y=0.000000
_Z=0.000000
_DIVERGENCE=3.000000
_ANTISCATTER=3.000000
_DETECTOR=1
; S.C.
_HV=687
_GAIN=80
_LLD=0.690000
_ULD=1.866000
_DETECTORSLIT='unkn'
_AUX1=0.000000
_AUX2=0.000000
_AUX3=0.000000
_TIMESTARTED=12761
_TEMP_RATE=0.000000
_TEMP_DELAY=0.000000
_KV=35
_MA=40
_RANGE_WL=1.788970
_3DPLANE=0
_2THETACOUNTS
   0.0000      1484
; (Data for Range number 142)
_DRIVE='PHI'
_STEPTIME=20
_STEPSIZE=5.000000
_STEPMODE='S'
_START=0.000000
_THETA=52.5
_2THETA=105
_KHI=25
_PHI=0.000000
_X=0.000000
_Y=0.000000
_Z=0.000000
_DIVERGENCE=3.000000
_ANTISCATTER=3.000000
_DETECTOR=1
; S.C.
_HV=687
_GAIN=80
_LLD=0.690000
_ULD=1.866000
_DETECTORSLIT='unkn'
_AUX1=0.000000
_AUX2=0.000000
_AUX3=0.000000
_TIMESTARTED=12786
_TEMP_RATE=0.000000
_TEMP_DELAY=0.000000
_KV=35
_MA=40
_RANGE_WL=1.788970
_3DPLANE=0
_2THETACOUNTS
   0.0000      1466
; (Data for Range number 143)
_DRIVE='PHI'
_STEPTIME=20
_STEPSIZE=5.000000
_STEPMODE='S'
_START=0.000000
_THETA=52.5
_2THETA=105
_KHI=30
_PHI=0.000000
_X=0.000000
_Y=0.000000
_Z=0.000000
_DIVERGENCE=3.000000
_ANTISCATTER=3.000000
_DETECTOR=1
; S.C.
_HV=687
_GAIN=80
_LLD=0.690000
_ULD=1.866000
_DETECTORSLIT='unkn'
_AUX1=0.000000
_AUX2=0.000000
_AUX3=0.000000
_TIMESTARTED=12810
_TEMP_RATE=0.000000
_TEMP_DELAY=0.000000
_KV=35
_MA=40
_RANGE_WL=1.788970
_3DPLANE=0
_2THETACOUNTS
   0.0000      1508
; (Data for Range number 144)
_DRIVE='PHI'
_STEPTIME=20
_STEPSIZE=5.000000
_STEPMODE='S'
_START=0.000000
_THETA=52.5
_2THETA=105
_KHI=35
_PHI=0.000000
_X=0.000000
_Y=0.000000
_Z=0.000000
_DIVERGENCE=3.000000
_ANTISCATTER=3.000000
_DETECTOR=1
; S.C.
_HV=687
_GAIN=80
_LLD=0.690000
_ULD=1.866000
_DETECTORSLIT='unkn'
_AUX1=0.000000
_AUX2=0.000000
_AUX3=0.000000
_TIMESTARTED=12835
_TEMP_RATE=0.000000
_TEMP_DELAY=0.000000
_KV=35
_MA=40
_RANGE_WL=1.788970
_3DPLANE=0
_2THETACOUNTS
   0.0000      1386
; (Data for Range number 145)
_DRIVE='PHI'
_STEPTIME=20
_STEPSIZE=5.000000
_STEPMODE='S'
_START=0.000000
_THETA=52.5
_2THETA=105
_KHI=40
_PHI=0.000000
_X=0.000000
_Y=0.000000
_Z=0.000000
_DIVERGENCE=3.000000
_ANTISCATTER=3.000000
_DETECTOR=1
; S.C.
_HV=687
_GAIN=80
_LLD=0.690000
_ULD=1.866000
_DETECTORSLIT='unkn'
_AUX1=0.000000
_AUX2=0.000000
_AUX3=0.000000
_TIMESTARTED=12859
_TEMP_RATE=0.000000
_TEMP_DELAY=0.000000
_KV=35
_MA=40
_RANGE_WL=1.788970
_3DPLANE=0
_2THETACOUNTS
   0.0000      1347
; (Data for Range number 146)
_DRIVE='PHI'
_STEPTIME=20
_STEPSIZE=5.000000
_STEPMODE='S'
_START=0.000000
_THETA=52.5
_2THETA=105
_KHI=45
_PHI=0.000000
_X=0.000000
_Y=0.000000
_Z=0.000000
_DIVERGENCE=3.000000
_ANTISCATTER=3.000000
_DETECTOR=1
; S.C.
_HV=687
_GAIN=80
_LLD=0.690000
_ULD=1.866000
_DETECTORSLIT='unkn'
_AUX1=0.000000
_AUX2=0.000000
_AUX3=0.000000
_TIMESTARTED=12884
_TEMP_RATE=0.000000
_TEMP_DELAY=0.000000
_KV=35
_MA=40
_RANGE_WL=1.788970
_3DPLANE=0
_2THETACOUNTS
   0.0000      1285
; (Data for Range number 147)
_DRIVE='PHI'
_STEPTIME=20
_STEPSIZE=5.000000
_STEPMODE='S'
_START=0.000000
_THETA=52.5
_2THETA=105
_KHI=50
_PHI=0.000000
_X=0.000000
_Y=0.000000
_Z=0.000000
_DIVERGENCE=3.000000
_ANTISCATTER=3.000000
_DETECTOR=1
; S.C.
_HV=687
_GAIN=80
_LLD=0.690000
_ULD=1.866000
_DETECTORSLIT='unkn'
_AUX1=0.000000
_AUX2=0.000000
_AUX3=0.000000
_TIMESTARTED=12909
_TEMP_RATE=0.000000
_TEMP_DELAY=0.000000
_KV=35
_MA=40
_RANGE_WL=1.788970
_3DPLANE=0
_2THETACOUNTS
   0.0000      1321
; (Data for Range number 148)
_DRIVE='PHI'
_STEPTIME=20
_STEPSIZE=5.000000
_STEPMODE='S'
_START=0.000000
_THETA=52.5
_2THETA=105
_KHI=55
_PHI=0.000000
_X=0.000000
_Y=0.000000
_Z=0.000000
_DIVERGENCE=3.000000
_ANTISCATTER=3.000000
_DETECTOR=1
; S.C.
_HV=687
_GAIN=80
_LLD=0.690000
_ULD=1.866000
_DETECTORSLIT='unkn'
_AUX1=0.000000
_AUX2=0.000000
_AUX3=0.000000
_TIMESTARTED=12934
_TEMP_RATE=0.000000
_TEMP_DELAY=0.000000
_KV=35
_MA=40
_RANGE_WL=1.788970
_3DPLANE=0
_2THETACOUNTS
   0.0000      1329
; (Data for Range number 149)
_DRIVE='PHI'
_STEPTIME=20
_STEPSIZE=5.000000
_STEPMODE='S'
_START=0.000000
_THETA=52.5
_2THETA=105
_KHI=60
_PHI=0.000000
_X=0.000000
_Y=0.000000
_Z=0.000000
_DIVERGENCE=3.000000
_ANTISCATTER=3.000000
_DETECTOR=1
; S.C.
_HV=687
_GAIN=80
_LLD=0.690000
_ULD=1.866000
_DETECTORSLIT='unkn'
_AUX1=0.000000
_AUX2=0.000000
_AUX3=0.000000
_TIMESTARTED=12958
_TEMP_RATE=0.000000
_TEMP_DELAY=0.000000
_KV=35
_MA=40
_RANGE_WL=1.788970
_3DPLANE=0
_2THETACOUNTS
   0.0000      1223
; (Data for Range number 150)
_DRIVE='PHI'
_STEPTIME=20
_STEPSIZE=5.000000
_STEPMODE='S'
_START=0.000000
_THETA=52.5
_2THETA=105
_KHI=65
_PHI=0.000000
_X=0.000000
_Y=0.000000
_Z=0.000000
_DIVERGENCE=3.000000
_ANTISCATTER=3.000000
_DETECTOR=1
; S.C.
_HV=687
_GAIN=80
_LLD=0.690000
_ULD=1.866000
_DETECTORSLIT='unkn'
_AUX1=0.000000
_AUX2=0.000000
_AUX3=0.000000
_TIMESTARTED=12983
_TEMP_RATE=0.000000
_TEMP_DELAY=0.000000
_KV=35
_MA=40
_RANGE_WL=1.788970
_3DPLANE=0
_2THETACOUNTS
   0.0000      1219
; (Data for Range number 151)
_DRIVE='PHI'
_STEPTIME=20
_STEPSIZE=5.000000
_STEPMODE='S'
_START=0.000000
_THETA=52.5
_2THETA=105
_KHI=70
_PHI=0.000000
_X=0.000000
_Y=0.000000
_Z=0.000000
_DIVERGENCE=3.000000
_ANTISCATTER=3.000000
_DETECTOR=1
; S.C.
_HV=687
_GAIN=80
_LLD=0.690000
_ULD=1.866000
_DETECTORSLIT='unkn'
_AUX1=0.000000
_AUX2=0.000000
_AUX3=0.000000
_TIMESTARTED=13008
_TEMP_RATE=0.000000
_TEMP_DELAY=0.000000
_KV=35
_MA=40
_RANGE_WL=1.788970
_3DPLANE=0
_2THETACOUNTS
   0.0000      1130
; (Data for Range number 152)
_DRIVE='PHI'
_STEPTIME=20
_STEPSIZE=5.000000
_STEPMODE='S'
_START=0.000000
_THETA=52.5
_2THETA=105
_KHI=75
_PHI=0.000000
_X=0.000000
_Y=0.000000
_Z=0.000000
_DIVERGENCE=3.000000
_ANTISCATTER=3.000000
_DETECTOR=1
; S.C.
_HV=687
_GAIN=80
_LLD=0.690000
_ULD=1.866000
_DETECTORSLIT='unkn'
_AUX1=0.000000
_AUX2=0.000000
_AUX3=0.000000
_TIMESTARTED=13032
_TEMP_RATE=0.000000
_TEMP_DELAY=0.000000
_KV=35
_MA=40
_RANGE_WL=1.788970
_3DPLANE=0
_2THETACOUNTS
   0.0000       994
; (Data for Range number 153)
_DRIVE='PHI'
_STEPTIME=20
_STEPSIZE=5.000000
_STEPMODE='S'
_START=0.000000
_THETA=52.5
_2THETA=105
_KHI=80
_PHI=0.000000
_X=0.000000
_Y=0.000000
_Z=0.000000
_DIVERGENCE=3.000000
_ANTISCATTER=3.000000
_DETECTOR=1
; S.C.
_HV=687
_GAIN=80
_LLD=0.690000
_ULD=1.866000
_DETECTORSLIT='unkn'
_AUX1=0.000000
_AUX2=0.000000
_AUX3=0.000000
_TIMESTARTED=13057
_TEMP_RATE=0.000000
_TEMP_DELAY=0.000000
_KV=35
_MA=40
_RANGE_WL=1.788970
_3DPLANE=0
_2THETACOUNTS
   0.0000       755