File: dat/ass-stand_dfc_new.UXD
; C:\DIFFDAT1\GIFT\MML\youngung\standard_Aust_ss\ass-stnd_R.raw(Diffrac Plus V1.01 file) converted by XCH V1.0
_FILEVERSION=2
_SITE='Korea'
_USER='Admin'
_SAMPLE_CHANGER_CODE=0
_ATTACHMENTS_CODE=0
_GONIOMETER_RADIUS=300
_FIXED_DIVSLIT=1.000000
_FIXED_SAMPLESLIT=0.000000
_FIXED_DETSLIT=0.100000
_MONOCHROMATOR=0
; None
_THIN_FILM='N'
_BETA_FILTER='Y'
_FIXED_ANTISLIT=0.600000
_ANALYZER_CODE=0
; None
_DATEMEASURED='20-Jan-2011 02:25:01'
_WL_UNIT='A'
_WL1=1.788970
_WL2=1.792850
_WL3=1.620790
_WLRATIO=0.500000
_ANODE='Co'
; (Data for Range number 1)
_DRIVE='PHI'
_STEPTIME=2.000000
_STEPSIZE=5.000000
_STEPMODE='C'
_START=0.000000
_THETA=25.515
_2THETA=51.03
_KHI=0.000000
_PHI=0.000000
_X=0.000000
_Y=0.000000
_Z=0.000000
_DIVERGENCE=3.000000
_ANTISCATTER=3.000000
_DETECTOR=1
; S.C.
_HV=687
_GAIN=80
_LLD=0.690000
_ULD=1.866000
_DETECTORSLIT='unkn'
_AUX1=0.000000
_AUX2=0.000000
_AUX3=0.000000
_TIMESTARTED=10
_TEMP_RATE=0.000000
_TEMP_DELAY=0.000000
_KV=35
_MA=40
_RANGE_WL=1.788970
_3DPLANE=0
_2THETACOUNTS
   0.0000      2445
   5.0000      2615
  10.0000      2602
  15.0000      2667
  20.0000      2567
  25.0000      2497
  30.0000      2581
  35.0000      2536
  40.0000      2506
  45.0000      2480
  50.0000      2578
  55.0000      2678
  60.0000      2702
  65.0000      2698
  70.0000      2667
  75.0000      2737
  80.0000      2785
  85.0000      2902
  90.0000      2973
  95.0000      2890
 100.0000      2684
 105.0000      2913
 110.0000      2732
 115.0000      2652
 120.0000      2618
 125.0000      2561
 130.0000      2460
 135.0000      2506
 140.0000      2514
 145.0000      2719
 150.0000      2727
 155.0000      2683
 160.0000      2471
 165.0000      2408
 170.0000      2274
 175.0000      2493
 180.0000      2569
 185.0000      2708
 190.0000      2853
 195.0000      2900
 200.0000      2787
 205.0000      2744
 210.0000      2732
 215.0000      2606
 220.0000      2699
 225.0000      2871
 230.0000      2886
 235.0000      3069
 240.0000      2986
 245.0000      3022
 250.0000      3103
 255.0000      3337
 260.0000      3474
 265.0000      3532
 270.0000      3347
 275.0000      3312
 280.0000      3206
 285.0000      3210
 290.0000      3126
 295.0000      2968
 300.0000      2781
 305.0000      2751
 310.0000      2834
 315.0000      2655
 320.0000      2780
 325.0000      2920
 330.0000      2734
 335.0000      2742
 340.0000      2820
 345.0000      2574
 350.0000      2649
 355.0000      2551
; (Data for Range number 2)
_DRIVE='PHI'
_STEPTIME=2.000000
_STEPSIZE=5.000000
_STEPMODE='C'
_START=0.000000
_THETA=25.515
_2THETA=51.03
_KHI=5.000000
_PHI=0.000000
_X=0.000000
_Y=0.000000
_Z=0.000000
_DIVERGENCE=3.000000
_ANTISCATTER=3.000000
_DETECTOR=1
; S.C.
_HV=687
_GAIN=80
_LLD=0.690000
_ULD=1.866000
_DETECTORSLIT='unkn'
_AUX1=0.000000
_AUX2=0.000000
_AUX3=0.000000
_TIMESTARTED=215
_TEMP_RATE=0.000000
_TEMP_DELAY=0.000000
_KV=35
_MA=40
_RANGE_WL=1.788970
_3DPLANE=0
_2THETACOUNTS
   0.0000      2342
   5.0000      2184
  10.0000      2306
  15.0000      2495
  20.0000      2569
  25.0000      2725
  30.0000      2369
  35.0000      2374
  40.0000      2462
  45.0000      2561
  50.0000      2644
  55.0000      2563
  60.0000      2581
  65.0000      2362
  70.0000      2426
  75.0000      2579
  80.0000      2431
  85.0000      2492
  90.0000      2591
  95.0000      2673
 100.0000      2330
 105.0000      2289
 110.0000      2241
 115.0000      2085
 120.0000      2072
 125.0000      2185
 130.0000      2206
 135.0000      2287
 140.0000      2203
 145.0000      2313
 150.0000      2355
 155.0000      2579
 160.0000      2681
 165.0000      2546
 170.0000      2641
 175.0000      2549
 180.0000      2550
 185.0000      2390
 190.0000      2532
 195.0000      2342
 200.0000      2537
 205.0000      2679
 210.0000      2291
 215.0000      2268
 220.0000      2353
 225.0000      2519
 230.0000      2371
 235.0000      2546
 240.0000      2322
 245.0000      2574
 250.0000      2447
 255.0000      2543
 260.0000      2357
 265.0000      2174
 270.0000      2631
 275.0000      2484
 280.0000      2446
 285.0000      2540
 290.0000      2877
 295.0000      2775
 300.0000      2471
 305.0000      2396
 310.0000      2441
 315.0000      2501
 320.0000      2360
 325.0000      2436
 330.0000      2347
 335.0000      2214
 340.0000      2049
 345.0000      2440
 350.0000      2062
 355.0000      2300
; (Data for Range number 3)
_DRIVE='PHI'
_STEPTIME=2.000000
_STEPSIZE=5.000000
_STEPMODE='C'
_START=0.000000
_THETA=25.515
_2THETA=51.03
_KHI=10
_PHI=0.000000
_X=0.000000
_Y=0.000000
_Z=0.000000
_DIVERGENCE=3.000000
_ANTISCATTER=3.000000
_DETECTOR=1
; S.C.
_HV=687
_GAIN=80
_LLD=0.690000
_ULD=1.866000
_DETECTORSLIT='unkn'
_AUX1=0.000000
_AUX2=0.000000
_AUX3=0.000000
_TIMESTARTED=420
_TEMP_RATE=0.000000
_TEMP_DELAY=0.000000
_KV=35
_MA=40
_RANGE_WL=1.788970
_3DPLANE=0
_2THETACOUNTS
   0.0000      2633
   5.0000      2718
  10.0000      2708
  15.0000      2267
  20.0000      2356
  25.0000      2193
  30.0000      2149
  35.0000      2476
  40.0000      2785
  45.0000      2835
  50.0000      3110
  55.0000      2523
  60.0000      2393
  65.0000      2485
  70.0000      2270
  75.0000      2294
  80.0000      2158
  85.0000      2487
  90.0000      2739
  95.0000      2421
 100.0000      2527
 105.0000      2514
 110.0000      2463
 115.0000      2393
 120.0000      2697
 125.0000      2390
 130.0000      2317
 135.0000      2341
 140.0000      2334
 145.0000      2507
 150.0000      2342
 155.0000      2410
 160.0000      2458
 165.0000      2559
 170.0000      2429
 175.0000      2402
 180.0000      2507
 185.0000      2354
 190.0000      2499
 195.0000      2372
 200.0000      2495
 205.0000      2560
 210.0000      2346
 215.0000      2545
 220.0000      2172
 225.0000      2551
 230.0000      2517
 235.0000      2432
 240.0000      2444
 245.0000      2593
 250.0000      2687
 255.0000      2619
 260.0000      2830
 265.0000      2492
 270.0000      2347
 275.0000      2465
 280.0000      2206
 285.0000      2492
 290.0000      2425
 295.0000      2277
 300.0000      2460
 305.0000      2409
 310.0000      2698
 315.0000      2385
 320.0000      2416
 325.0000      2337
 330.0000      2384
 335.0000      2334
 340.0000      2308
 345.0000      2581
 350.0000      2898
 355.0000      2138
; (Data for Range number 4)
_DRIVE='PHI'
_STEPTIME=2.000000
_STEPSIZE=5.000000
_STEPMODE='C'
_START=0.000000
_THETA=25.515
_2THETA=51.03
_KHI=15
_PHI=0.000000
_X=0.000000
_Y=0.000000
_Z=0.000000
_DIVERGENCE=3.000000
_ANTISCATTER=3.000000
_DETECTOR=1
; S.C.
_HV=687
_GAIN=80
_LLD=0.690000
_ULD=1.866000
_DETECTORSLIT='unkn'
_AUX1=0.000000
_AUX2=0.000000
_AUX3=0.000000
_TIMESTARTED=625
_TEMP_RATE=0.000000
_TEMP_DELAY=0.000000
_KV=35
_MA=40
_RANGE_WL=1.788970
_3DPLANE=0
_2THETACOUNTS
   0.0000      2459
   5.0000      2651
  10.0000      2451
  15.0000      2443
  20.0000      2429
  25.0000      2398
  30.0000      2272
  35.0000      2418
  40.0000      2402
  45.0000      2202
  50.0000      2379
  55.0000      2298
  60.0000      2230
  65.0000      2406
  70.0000      2706
  75.0000      2477
  80.0000      2469
  85.0000      2229
  90.0000      2759
  95.0000      2445
 100.0000      2485
 105.0000      2381
 110.0000      2456
 115.0000      2337
 120.0000      2236
 125.0000      2314
 130.0000      2174
 135.0000      2505
 140.0000      2210
 145.0000      2558
 150.0000      2253
 155.0000      2318
 160.0000      2738
 165.0000      2478
 170.0000      2471
 175.0000      2488
 180.0000      2578
 185.0000      2412
 190.0000      2465
 195.0000      2264
 200.0000      2368
 205.0000      2609
 210.0000      2439
 215.0000      2247
 220.0000      2239
 225.0000      2407
 230.0000      2364
 235.0000      2473
 240.0000      2272
 245.0000      2378
 250.0000      2433
 255.0000      2324
 260.0000      2428
 265.0000      2550
 270.0000      2392
 275.0000      2517
 280.0000      2617
 285.0000      2404
 290.0000      2472
 295.0000      2417
 300.0000      2637
 305.0000      2378
 310.0000      2518
 315.0000      2468
 320.0000      2322
 325.0000      2528
 330.0000      2578
 335.0000      2408
 340.0000      2536
 345.0000      2381
 350.0000      2515
 355.0000      2669
; (Data for Range number 5)
_DRIVE='PHI'
_STEPTIME=2.000000
_STEPSIZE=5.000000
_STEPMODE='C'
_START=0.000000
_THETA=25.515
_2THETA=51.03
_KHI=20
_PHI=0.000000
_X=0.000000
_Y=0.000000
_Z=0.000000
_DIVERGENCE=3.000000
_ANTISCATTER=3.000000
_DETECTOR=1
; S.C.
_HV=687
_GAIN=80
_LLD=0.690000
_ULD=1.866000
_DETECTORSLIT='unkn'
_AUX1=0.000000
_AUX2=0.000000
_AUX3=0.000000
_TIMESTARTED=830
_TEMP_RATE=0.000000
_TEMP_DELAY=0.000000
_KV=35
_MA=40
_RANGE_WL=1.788970
_3DPLANE=0
_2THETACOUNTS
   0.0000      2400
   5.0000      2541
  10.0000      2699
  15.0000      2370
  20.0000      2486
  25.0000      2332
  30.0000      2266
  35.0000      2262
  40.0000      2270
  45.0000      2143
  50.0000      2383
  55.0000      2084
  60.0000      2258
  65.0000      2284
  70.0000      2540
  75.0000      2417
  80.0000      2579
  85.0000      2374
  90.0000      2514
  95.0000      2541
 100.0000      2516
 105.0000      2220
 110.0000      2198
 115.0000      2469
 120.0000      2373
 125.0000      2395
 130.0000      2239
 135.0000      2259
 140.0000      2288
 145.0000      2369
 150.0000      2137
 155.0000      2298
 160.0000      2499
 165.0000      2330
 170.0000      2247
 175.0000      2377
 180.0000      2272
 185.0000      2309
 190.0000      2416
 195.0000      2434
 200.0000      2277
 205.0000      2393
 210.0000      2589
 215.0000      2402
 220.0000      2466
 225.0000      2603
 230.0000      2515
 235.0000      2471
 240.0000      2381
 245.0000      2426
 250.0000      2573
 255.0000      2381
 260.0000      2339
 265.0000      2485
 270.0000      2349
 275.0000      2315
 280.0000      2248
 285.0000      2293
 290.0000      2364
 295.0000      2376
 300.0000      2463
 305.0000      2511
 310.0000      2614
 315.0000      2342
 320.0000      2532
 325.0000      2483
 330.0000      2346
 335.0000      2423
 340.0000      2485
 345.0000      2419
 350.0000      2400
 355.0000      2426
; (Data for Range number 6)
_DRIVE='PHI'
_STEPTIME=2.000000
_STEPSIZE=5.000000
_STEPMODE='C'
_START=0.000000
_THETA=25.515
_2THETA=51.03
_KHI=25
_PHI=0.000000
_X=0.000000
_Y=0.000000
_Z=0.000000
_DIVERGENCE=3.000000
_ANTISCATTER=3.000000
_DETECTOR=1
; S.C.
_HV=687
_GAIN=80
_LLD=0.690000
_ULD=1.866000
_DETECTORSLIT='unkn'
_AUX1=0.000000
_AUX2=0.000000
_AUX3=0.000000
_TIMESTARTED=1035
_TEMP_RATE=0.000000
_TEMP_DELAY=0.000000
_KV=35
_MA=40
_RANGE_WL=1.788970
_3DPLANE=0
_2THETACOUNTS
   0.0000      2594
   5.0000      2368
  10.0000      2311
  15.0000      2474
  20.0000      2420
  25.0000      2382
  30.0000      2250
  35.0000      2446
  40.0000      2560
  45.0000      2641
  50.0000      2214
  55.0000      2381
  60.0000      2328
  65.0000      2328
  70.0000      2587
  75.0000      2251
  80.0000      2233
  85.0000      2411
  90.0000      2426
  95.0000      2421
 100.0000      2432
 105.0000      2614
 110.0000      2430
 115.0000      2561
 120.0000      2396
 125.0000      2122
 130.0000      2235
 135.0000      2199
 140.0000      2203
 145.0000      2211
 150.0000      2157
 155.0000      2419
 160.0000      2561
 165.0000      2403
 170.0000      2585
 175.0000      2346
 180.0000      2295
 185.0000      2306
 190.0000      2460
 195.0000      2523
 200.0000      2189
 205.0000      2191
 210.0000      2495
 215.0000      2522
 220.0000      2477
 225.0000      2413
 230.0000      2311
 235.0000      2341
 240.0000      2395
 245.0000      2292
 250.0000      2280
 255.0000      2401
 260.0000      2474
 265.0000      2412
 270.0000      2205
 275.0000      2377
 280.0000      2353
 285.0000      2349
 290.0000      2149
 295.0000      2386
 300.0000      2521
 305.0000      2201
 310.0000      2091
 315.0000      2533
 320.0000      2213
 325.0000      2587
 330.0000      2331
 335.0000      2386
 340.0000      2376
 345.0000      2467
 350.0000      2667
 355.0000      2212
; (Data for Range number 7)
_DRIVE='PHI'
_STEPTIME=2.000000
_STEPSIZE=5.000000
_STEPMODE='C'
_START=0.000000
_THETA=25.515
_2THETA=51.03
_KHI=30
_PHI=0.000000
_X=0.000000
_Y=0.000000
_Z=0.000000
_DIVERGENCE=3.000000
_ANTISCATTER=3.000000
_DETECTOR=1
; S.C.
_HV=687
_GAIN=80
_LLD=0.690000
_ULD=1.866000
_DETECTORSLIT='unkn'
_AUX1=0.000000
_AUX2=0.000000
_AUX3=0.000000
_TIMESTARTED=1240
_TEMP_RATE=0.000000
_TEMP_DELAY=0.000000
_KV=35
_MA=40
_RANGE_WL=1.788970
_3DPLANE=0
_2THETACOUNTS
   0.0000      2311
   5.0000      2280
  10.0000      2297
  15.0000      2494
  20.0000      2370
  25.0000      2512
  30.0000      2745
  35.0000      2452
  40.0000      2429
  45.0000      2487
  50.0000      2166
  55.0000      2441
  60.0000      2421
  65.0000      2312
  70.0000      2271
  75.0000      2374
  80.0000      2609
  85.0000      2346
  90.0000      2476
  95.0000      2315
 100.0000      2317
 105.0000      2480
 110.0000      2349
 115.0000      2227
 120.0000      2123
 125.0000      2318
 130.0000      2302
 135.0000      2347
 140.0000      2194
 145.0000      2406
 150.0000      2443
 155.0000      2269
 160.0000      2373
 165.0000      2297
 170.0000      2554
 175.0000      2664
 180.0000      2725
 185.0000      2320
 190.0000      2390
 195.0000      2275
 200.0000      2383
 205.0000      2707
 210.0000      2314
 215.0000      2577
 220.0000      2429
 225.0000      2200
 230.0000      2416
 235.0000      2274
 240.0000      2173
 245.0000      2296
 250.0000      2015
 255.0000      2191
 260.0000      2349
 265.0000      2450
 270.0000      2245
 275.0000      2178
 280.0000      2222
 285.0000      2491
 290.0000      2208
 295.0000      2336
 300.0000      2371
 305.0000      2254
 310.0000      2400
 315.0000      2379
 320.0000      2399
 325.0000      2615
 330.0000      2412
 335.0000      2348
 340.0000      2474
 345.0000      2598
 350.0000      2289
 355.0000      2385
; (Data for Range number 8)
_DRIVE='PHI'
_STEPTIME=2.000000
_STEPSIZE=5.000000
_STEPMODE='C'
_START=0.000000
_THETA=25.515
_2THETA=51.03
_KHI=35
_PHI=0.000000
_X=0.000000
_Y=0.000000
_Z=0.000000
_DIVERGENCE=3.000000
_ANTISCATTER=3.000000
_DETECTOR=1
; S.C.
_HV=687
_GAIN=80
_LLD=0.690000
_ULD=1.866000
_DETECTORSLIT='unkn'
_AUX1=0.000000
_AUX2=0.000000
_AUX3=0.000000
_TIMESTARTED=1445
_TEMP_RATE=0.000000
_TEMP_DELAY=0.000000
_KV=35
_MA=40
_RANGE_WL=1.788970
_3DPLANE=0
_2THETACOUNTS
   0.0000      2451
   5.0000      2374
  10.0000      2493
  15.0000      2388
  20.0000      2552
  25.0000      2305
  30.0000      2299
  35.0000      2365
  40.0000      2534
  45.0000      2238
  50.0000      2366
  55.0000      2427
  60.0000      2309
  65.0000      2322
  70.0000      2531
  75.0000      2523
  80.0000      2248
  85.0000      2287
  90.0000      2428
  95.0000      2156
 100.0000      2404
 105.0000      2420
 110.0000      2293
 115.0000      2453
 120.0000      2284
 125.0000      2143
 130.0000      2366
 135.0000      2384
 140.0000      2347
 145.0000      2337
 150.0000      2382
 155.0000      2120
 160.0000      2318
 165.0000      2387
 170.0000      2195
 175.0000      2242
 180.0000      2472
 185.0000      2460
 190.0000      2396
 195.0000      2458
 200.0000      2272
 205.0000      2491
 210.0000      2323
 215.0000      2425
 220.0000      2279
 225.0000      2525
 230.0000      2474
 235.0000      2261
 240.0000      2244
 245.0000      2466
 250.0000      2325
 255.0000      2349
 260.0000      2858
 265.0000      2674
 270.0000      2498
 275.0000      2455
 280.0000      2358
 285.0000      2316
 290.0000      2183
 295.0000      2148
 300.0000      2389
 305.0000      2478
 310.0000      2462
 315.0000      2465
 320.0000      2596
 325.0000      2508
 330.0000      2436
 335.0000      2365
 340.0000      2296
 345.0000      2450
 350.0000      2304
 355.0000      2241
; (Data for Range number 9)
_DRIVE='PHI'
_STEPTIME=2.000000
_STEPSIZE=5.000000
_STEPMODE='C'
_START=0.000000
_THETA=25.515
_2THETA=51.03
_KHI=40
_PHI=0.000000
_X=0.000000
_Y=0.000000
_Z=0.000000
_DIVERGENCE=3.000000
_ANTISCATTER=3.000000
_DETECTOR=1
; S.C.
_HV=687
_GAIN=80
_LLD=0.690000
_ULD=1.866000
_DETECTORSLIT='unkn'
_AUX1=0.000000
_AUX2=0.000000
_AUX3=0.000000
_TIMESTARTED=1650
_TEMP_RATE=0.000000
_TEMP_DELAY=0.000000
_KV=35
_MA=40
_RANGE_WL=1.788970
_3DPLANE=0
_2THETACOUNTS
   0.0000      2333
   5.0000      2294
  10.0000      2465
  15.0000      2449
  20.0000      2187
  25.0000      2293
  30.0000      2256
  35.0000      2303
  40.0000      2186
  45.0000      2400
  50.0000      2402
  55.0000      2201
  60.0000      2117
  65.0000      2268
  70.0000      2463
  75.0000      2266
  80.0000      2281
  85.0000      2195
  90.0000      2210
  95.0000      2545
 100.0000      2358
 105.0000      2431
 110.0000      2224
 115.0000      2263
 120.0000      2365
 125.0000      2345
 130.0000      2232
 135.0000      2150
 140.0000      2229
 145.0000      2194
 150.0000      2237
 155.0000      2154
 160.0000      2187
 165.0000      2474
 170.0000      2245
 175.0000      2153
 180.0000      2498
 185.0000      2370
 190.0000      2322
 195.0000      2159
 200.0000      2414
 205.0000      2525
 210.0000      2286
 215.0000      2441
 220.0000      2385
 225.0000      2333
 230.0000      2413
 235.0000      2516
 240.0000      2448
 245.0000      2355
 250.0000      2257
 255.0000      2398
 260.0000      2548
 265.0000      2245
 270.0000      2513
 275.0000      2480
 280.0000      2445
 285.0000      2392
 290.0000      2388
 295.0000      2169
 300.0000      1998
 305.0000      2388
 310.0000      2304
 315.0000      2289
 320.0000      2410
 325.0000      2281
 330.0000      2453
 335.0000      2322
 340.0000      2344
 345.0000      2474
 350.0000      2197
 355.0000      2559
; (Data for Range number 10)
_DRIVE='PHI'
_STEPTIME=2.000000
_STEPSIZE=5.000000
_STEPMODE='C'
_START=0.000000
_THETA=25.515
_2THETA=51.03
_KHI=45
_PHI=0.000000
_X=0.000000
_Y=0.000000
_Z=0.000000
_DIVERGENCE=3.000000
_ANTISCATTER=3.000000
_DETECTOR=1
; S.C.
_HV=687
_GAIN=80
_LLD=0.690000
_ULD=1.866000
_DETECTORSLIT='unkn'
_AUX1=0.000000
_AUX2=0.000000
_AUX3=0.000000
_TIMESTARTED=1855
_TEMP_RATE=0.000000
_TEMP_DELAY=0.000000
_KV=35
_MA=40
_RANGE_WL=1.788970
_3DPLANE=0
_2THETACOUNTS
   0.0000      2192
   5.0000      2205
  10.0000      2463
  15.0000      2204
  20.0000      2341
  25.0000      2332
  30.0000      2221
  35.0000      2320
  40.0000      2197
  45.0000      2253
  50.0000      2366
  55.0000      2325
  60.0000      2304
  65.0000      2454
  70.0000      2361
  75.0000      2197
  80.0000      2238
  85.0000      2268
  90.0000      2322
  95.0000      2197
 100.0000      2129
 105.0000      2400
 110.0000      2128
 115.0000      2259
 120.0000      2070
 125.0000      2249
 130.0000      2154
 135.0000      2105
 140.0000      2129
 145.0000      2426
 150.0000      2227
 155.0000      2134
 160.0000      2239
 165.0000      2241
 170.0000      2295
 175.0000      2360
 180.0000      2347
 185.0000      2453
 190.0000      2347
 195.0000      2267
 200.0000      2551
 205.0000      2328
 210.0000      2446
 215.0000      2219
 220.0000      2332
 225.0000      2210
 230.0000      2204
 235.0000      2284
 240.0000      2366
 245.0000      2178
 250.0000      2350
 255.0000      2334
 260.0000      2327
 265.0000      2362
 270.0000      2319
 275.0000      2341
 280.0000      2408
 285.0000      2294
 290.0000      2243
 295.0000      2306
 300.0000      2191
 305.0000      2337
 310.0000      2221
 315.0000      2330
 320.0000      2270
 325.0000      2237
 330.0000      2349
 335.0000      2171
 340.0000      2209
 345.0000      2336
 350.0000      2178
 355.0000      2165
; (Data for Range number 11)
_DRIVE='PHI'
_STEPTIME=2.000000
_STEPSIZE=5.000000
_STEPMODE='C'
_START=0.000000
_THETA=25.515
_2THETA=51.03
_KHI=50
_PHI=0.000000
_X=0.000000
_Y=0.000000
_Z=0.000000
_DIVERGENCE=3.000000
_ANTISCATTER=3.000000
_DETECTOR=1
; S.C.
_HV=687
_GAIN=80
_LLD=0.690000
_ULD=1.866000
_DETECTORSLIT='unkn'
_AUX1=0.000000
_AUX2=0.000000
_AUX3=0.000000
_TIMESTARTED=2060
_TEMP_RATE=0.000000
_TEMP_DELAY=0.000000
_KV=35
_MA=40
_RANGE_WL=1.788970
_3DPLANE=0
_2THETACOUNTS
   0.0000      2099
   5.0000      2286
  10.0000      2203
  15.0000      2354
  20.0000      2165
  25.0000      2164
  30.0000      2177
  35.0000      2067
  40.0000      2083
  45.0000      2028
  50.0000      2244
  55.0000      2523
  60.0000      2219
  65.0000      2307
  70.0000      2353
  75.0000      2194
  80.0000      2136
  85.0000      2231
  90.0000      2063
  95.0000      2092
 100.0000      2212
 105.0000      2112
 110.0000      2034
 115.0000      2106
 120.0000      2239
 125.0000      2116
 130.0000      2218
 135.0000      2156
 140.0000      2220
 145.0000      2330
 150.0000      2213
 155.0000      2240
 160.0000      2142
 165.0000      2236
 170.0000      2205
 175.0000      2250
 180.0000      2049
 185.0000      2160
 190.0000      2109
 195.0000      2199
 200.0000      2383
 205.0000      2133
 210.0000      2151
 215.0000      2117
 220.0000      2464
 225.0000      2335
 230.0000      2322
 235.0000      2303
 240.0000      2312
 245.0000      2271
 250.0000      2394
 255.0000      2313
 260.0000      2375
 265.0000      2337
 270.0000      2273
 275.0000      2020
 280.0000      2195
 285.0000      2218
 290.0000      2260
 295.0000      2215
 300.0000      2278
 305.0000      2430
 310.0000      2185
 315.0000      2246
 320.0000      1964
 325.0000      2162
 330.0000      2269
 335.0000      2325
 340.0000      2254
 345.0000      2342
 350.0000      2236
 355.0000      2230
; (Data for Range number 12)
_DRIVE='PHI'
_STEPTIME=2.000000
_STEPSIZE=5.000000
_STEPMODE='C'
_START=0.000000
_THETA=25.515
_2THETA=51.03
_KHI=55
_PHI=0.000000
_X=0.000000
_Y=0.000000
_Z=0.000000
_DIVERGENCE=3.000000
_ANTISCATTER=3.000000
_DETECTOR=1
; S.C.
_HV=687
_GAIN=80
_LLD=0.690000
_ULD=1.866000
_DETECTORSLIT='unkn'
_AUX1=0.000000
_AUX2=0.000000
_AUX3=0.000000
_TIMESTARTED=2265
_TEMP_RATE=0.000000
_TEMP_DELAY=0.000000
_KV=35
_MA=40
_RANGE_WL=1.788970
_3DPLANE=0
_2THETACOUNTS
   0.0000      2141
   5.0000      2068
  10.0000      2152
  15.0000      2128
  20.0000      2077
  25.0000      2060
  30.0000      2050
  35.0000      2162
  40.0000      2014
  45.0000      2080
  50.0000      2037
  55.0000      2151
  60.0000      2154
  65.0000      2153
  70.0000      2096
  75.0000      2063
  80.0000      2162
  85.0000      2146
  90.0000      2139
  95.0000      2096
 100.0000      2069
 105.0000      1883
 110.0000      2221
 115.0000      2065
 120.0000      2261
 125.0000      2018
 130.0000      2086
 135.0000      1984
 140.0000      2177
 145.0000      2080
 150.0000      1904
 155.0000      2223
 160.0000      2069
 165.0000      2127
 170.0000      2095
 175.0000      2014
 180.0000      2190
 185.0000      2001
 190.0000      2221
 195.0000      2034
 200.0000      2309
 205.0000      2198
 210.0000      2063
 215.0000      2076
 220.0000      2014
 225.0000      2064
 230.0000      2126
 235.0000      2212
 240.0000      2127
 245.0000      2380
 250.0000      2198
 255.0000      2119
 260.0000      2121
 265.0000      2253
 270.0000      2231
 275.0000      2114
 280.0000      2433
 285.0000      2117
 290.0000      2203
 295.0000      2148
 300.0000      2225
 305.0000      2056
 310.0000      1994
 315.0000      2141
 320.0000      2380
 325.0000      2199
 330.0000      2045
 335.0000      2062
 340.0000      2151
 345.0000      2114
 350.0000      2085
 355.0000      2076
; (Data for Range number 13)
_DRIVE='PHI'
_STEPTIME=2.000000
_STEPSIZE=5.000000
_STEPMODE='C'
_START=0.000000
_THETA=25.515
_2THETA=51.03
_KHI=60
_PHI=0.000000
_X=0.000000
_Y=0.000000
_Z=0.000000
_DIVERGENCE=3.000000
_ANTISCATTER=3.000000
_DETECTOR=1
; S.C.
_HV=687
_GAIN=80
_LLD=0.690000
_ULD=1.866000
_DETECTORSLIT='unkn'
_AUX1=0.000000
_AUX2=0.000000
_AUX3=0.000000
_TIMESTARTED=2470
_TEMP_RATE=0.000000
_TEMP_DELAY=0.000000
_KV=35
_MA=40
_RANGE_WL=1.788970
_3DPLANE=0
_2THETACOUNTS
   0.0000      2070
   5.0000      1998
  10.0000      1950
  15.0000      2034
  20.0000      2121
  25.0000      2084
  30.0000      1947
  35.0000      2099
  40.0000      2023
  45.0000      1980
  50.0000      2012
  55.0000      2092
  60.0000      2141
  65.0000      2115
  70.0000      2018
  75.0000      2030
  80.0000      1987
  85.0000      1960
  90.0000      1907
  95.0000      1739
 100.0000      1959
 105.0000      2068
 110.0000      1845
 115.0000      1803
 120.0000      1913
 125.0000      2036
 130.0000      2062
 135.0000      1966
 140.0000      1891
 145.0000      1914
 150.0000      1812
 155.0000      1893
 160.0000      2087
 165.0000      2190
 170.0000      2034
 175.0000      2031
 180.0000      2090
 185.0000      2018
 190.0000      1944
 195.0000      1999
 200.0000      2127
 205.0000      2045
 210.0000      2042
 215.0000      2136
 220.0000      2000
 225.0000      2005
 230.0000      2095
 235.0000      2018
 240.0000      1989
 245.0000      2048
 250.0000      2096
 255.0000      2107
 260.0000      2011
 265.0000      2129
 270.0000      1977
 275.0000      1888
 280.0000      2113
 285.0000      2124
 290.0000      1885
 295.0000      1972
 300.0000      2031
 305.0000      1983
 310.0000      2088
 315.0000      1983
 320.0000      2134
 325.0000      2189
 330.0000      2058
 335.0000      1896
 340.0000      2057
 345.0000      2016
 350.0000      1833
 355.0000      2011
; (Data for Range number 14)
_DRIVE='PHI'
_STEPTIME=2.000000
_STEPSIZE=5.000000
_STEPMODE='C'
_START=0.000000
_THETA=25.515
_2THETA=51.03
_KHI=65
_PHI=0.000000
_X=0.000000
_Y=0.000000
_Z=0.000000
_DIVERGENCE=3.000000
_ANTISCATTER=3.000000
_DETECTOR=1
; S.C.
_HV=687
_GAIN=80
_LLD=0.690000
_ULD=1.866000
_DETECTORSLIT='unkn'
_AUX1=0.000000
_AUX2=0.000000
_AUX3=0.000000
_TIMESTARTED=2675
_TEMP_RATE=0.000000
_TEMP_DELAY=0.000000
_KV=35
_MA=40
_RANGE_WL=1.788970
_3DPLANE=0
_2THETACOUNTS
   0.0000      1977
   5.0000      1750
  10.0000      1752
  15.0000      1832
  20.0000      1841
  25.0000      1847
  30.0000      1904
  35.0000      1654
  40.0000      1754
  45.0000      1949
  50.0000      1807
  55.0000      1909
  60.0000      1772
  65.0000      1779
  70.0000      1947
  75.0000      1789
  80.0000      1909
  85.0000      1932
  90.0000      1711
  95.0000      1741
 100.0000      1650
 105.0000      1805
 110.0000      1783
 115.0000      1732
 120.0000      1859
 125.0000      1675
 130.0000      1743
 135.0000      1876
 140.0000      1720
 145.0000      1659
 150.0000      1777
 155.0000      1843
 160.0000      1942
 165.0000      1754
 170.0000      1728
 175.0000      1836
 180.0000      1692
 185.0000      1661
 190.0000      1844
 195.0000      1930
 200.0000      1895
 205.0000      1892
 210.0000      1724
 215.0000      1768
 220.0000      1775
 225.0000      1778
 230.0000      1820
 235.0000      1937
 240.0000      1837
 245.0000      1927
 250.0000      1875
 255.0000      1957
 260.0000      1795
 265.0000      1694
 270.0000      1660
 275.0000      1876
 280.0000      1872
 285.0000      2039
 290.0000      1798
 295.0000      1729
 300.0000      1730
 305.0000      1633
 310.0000      1978
 315.0000      1984
 320.0000      1822
 325.0000      1864
 330.0000      1782
 335.0000      1936
 340.0000      1716
 345.0000      1803
 350.0000      1765
 355.0000      1761
; (Data for Range number 15)
_DRIVE='PHI'
_STEPTIME=2.000000
_STEPSIZE=5.000000
_STEPMODE='C'
_START=0.000000
_THETA=25.515
_2THETA=51.03
_KHI=70
_PHI=0.000000
_X=0.000000
_Y=0.000000
_Z=0.000000
_DIVERGENCE=3.000000
_ANTISCATTER=3.000000
_DETECTOR=1
; S.C.
_HV=687
_GAIN=80
_LLD=0.690000
_ULD=1.866000
_DETECTORSLIT='unkn'
_AUX1=0.000000
_AUX2=0.000000
_AUX3=0.000000
_TIMESTARTED=2880
_TEMP_RATE=0.000000
_TEMP_DELAY=0.000000
_KV=35
_MA=40
_RANGE_WL=1.788970
_3DPLANE=0
_2THETACOUNTS
   0.0000      1790
   5.0000      1611
  10.0000      1631
  15.0000      1545
  20.0000      1720
  25.0000      1638
  30.0000      1527
  35.0000      1565
  40.0000      1521
  45.0000      1436
  50.0000      1575
  55.0000      1539
  60.0000      1568
  65.0000      1582
  70.0000      1546
  75.0000      1489
  80.0000      1635
  85.0000      1606
  90.0000      1527
  95.0000      1550
 100.0000      1510
 105.0000      1463
 110.0000      1482
 115.0000      1540
 120.0000      1630
 125.0000      1567
 130.0000      1594
 135.0000      1557
 140.0000      1518
 145.0000      1406
 150.0000      1583
 155.0000      1581
 160.0000      1401
 165.0000      1569
 170.0000      1520
 175.0000      1636
 180.0000      1676
 185.0000      1611
 190.0000      1571
 195.0000      1555
 200.0000      1408
 205.0000      1596
 210.0000      1670
 215.0000      1602
 220.0000      1534
 225.0000      1617
 230.0000      1526
 235.0000      1563
 240.0000      1476
 245.0000      1511
 250.0000      1603
 255.0000      1549
 260.0000      1660
 265.0000      1537
 270.0000      1616
 275.0000      1740
 280.0000      1537
 285.0000      1654
 290.0000      1480
 295.0000      1549
 300.0000      1531
 305.0000      1479
 310.0000      1663
 315.0000      1445
 320.0000      1561
 325.0000      1576
 330.0000      1531
 335.0000      1646
 340.0000      1480
 345.0000      1692
 350.0000      1615
 355.0000      1517
; (Data for Range number 16)
_DRIVE='PHI'
_STEPTIME=2.000000
_STEPSIZE=5.000000
_STEPMODE='C'
_START=0.000000
_THETA=25.515
_2THETA=51.03
_KHI=75
_PHI=0.000000
_X=0.000000
_Y=0.000000
_Z=0.000000
_DIVERGENCE=3.000000
_ANTISCATTER=3.000000
_DETECTOR=1
; S.C.
_HV=687
_GAIN=80
_LLD=0.690000
_ULD=1.866000
_DETECTORSLIT='unkn'
_AUX1=0.000000
_AUX2=0.000000
_AUX3=0.000000
_TIMESTARTED=3084
_TEMP_RATE=0.000000
_TEMP_DELAY=0.000000
_KV=35
_MA=40
_RANGE_WL=1.788970
_3DPLANE=0
_2THETACOUNTS
   0.0000      1407
   5.0000      1365
  10.0000      1347
  15.0000      1265
  20.0000      1303
  25.0000      1297
  30.0000      1339
  35.0000      1276
  40.0000      1247
  45.0000      1361
  50.0000      1320
  55.0000      1407
  60.0000      1311
  65.0000      1307
  70.0000      1340
  75.0000      1300
  80.0000      1357
  85.0000      1300
  90.0000      1287
  95.0000      1258
 100.0000      1307
 105.0000      1205
 110.0000      1359
 115.0000      1388
 120.0000      1320
 125.0000      1261
 130.0000      1333
 135.0000      1279
 140.0000      1311
 145.0000      1337
 150.0000      1345
 155.0000      1275
 160.0000      1242
 165.0000      1319
 170.0000      1293
 175.0000      1320
 180.0000      1360
 185.0000      1249
 190.0000      1232
 195.0000      1263
 200.0000      1313
 205.0000      1405
 210.0000      1346
 215.0000      1260
 220.0000      1391
 225.0000      1356
 230.0000      1222
 235.0000      1261
 240.0000      1317
 245.0000      1276
 250.0000      1367
 255.0000      1351
 260.0000      1387
 265.0000      1282
 270.0000      1292
 275.0000      1419
 280.0000      1381
 285.0000      1375
 290.0000      1329
 295.0000      1309
 300.0000      1410
 305.0000      1251
 310.0000      1273
 315.0000      1326
 320.0000      1334
 325.0000      1370
 330.0000      1279
 335.0000      1353
 340.0000      1335
 345.0000      1305
 350.0000      1318
 355.0000      1302
; (Data for Range number 17)
_DRIVE='PHI'
_STEPTIME=2.000000
_STEPSIZE=5.000000
_STEPMODE='C'
_START=0.000000
_THETA=25.515
_2THETA=51.03
_KHI=80
_PHI=0.000000
_X=0.000000
_Y=0.000000
_Z=0.000000
_DIVERGENCE=3.000000
_ANTISCATTER=3.000000
_DETECTOR=1
; S.C.
_HV=687
_GAIN=80
_LLD=0.690000
_ULD=1.866000
_DETECTORSLIT='unkn'
_AUX1=0.000000
_AUX2=0.000000
_AUX3=0.000000
_TIMESTARTED=3289
_TEMP_RATE=0.000000
_TEMP_DELAY=0.000000
_KV=35
_MA=40
_RANGE_WL=1.788970
_3DPLANE=0
_2THETACOUNTS
   0.0000      1048
   5.0000      1045
  10.0000       987
  15.0000       982
  20.0000       993
  25.0000      1008
  30.0000       979
  35.0000       944
  40.0000      1029
  45.0000       977
  50.0000      1011
  55.0000      1022
  60.0000       948
  65.0000       931
  70.0000       965
  75.0000      1007
  80.0000       967
  85.0000      1003
  90.0000      1005
  95.0000      1017
 100.0000       987
 105.0000      1089
 110.0000      1005
 115.0000       987
 120.0000       941
 125.0000      1046
 130.0000      1002
 135.0000       970
 140.0000      1000
 145.0000       940
 150.0000       936
 155.0000       904
 160.0000       912
 165.0000       894
 170.0000       978
 175.0000       925
 180.0000       942
 185.0000       968
 190.0000       967
 195.0000       970
 200.0000       976
 205.0000      1028
 210.0000       977
 215.0000       895
 220.0000       972
 225.0000       934
 230.0000       975
 235.0000      1039
 240.0000      1003
 245.0000      1080
 250.0000      1006
 255.0000      1018
 260.0000       983
 265.0000      1098
 270.0000      1108
 275.0000      1001
 280.0000      1078
 285.0000      1004
 290.0000      1001
 295.0000      1075
 300.0000      1019
 305.0000      1024
 310.0000       955
 315.0000       971
 320.0000       939
 325.0000      1118
 330.0000      1022
 335.0000      1079
 340.0000      1009
 345.0000       924
 350.0000      1029
 355.0000      1005
; (Data for Range number 18)
_DRIVE='PHI'
_STEPTIME=20
_STEPSIZE=5.000000
_STEPMODE='S'
_START=0.000000
_THETA=22.5
_2THETA=45
_KHI=0.000000
_PHI=0.000000
_X=0.000000
_Y=0.000000
_Z=0.000000
_DIVERGENCE=3.000000
_ANTISCATTER=3.000000
_DETECTOR=1
; S.C.
_HV=687
_GAIN=80
_LLD=0.690000
_ULD=1.866000
_DETECTORSLIT='unkn'
_AUX1=0.000000
_AUX2=0.000000
_AUX3=0.000000
_TIMESTARTED=3492
_TEMP_RATE=0.000000
_TEMP_DELAY=0.000000
_KV=35
_MA=40
_RANGE_WL=1.788970
_3DPLANE=0
_2THETACOUNTS
   0.0000      5385
; (Data for Range number 19)
_DRIVE='PHI'
_STEPTIME=20
_STEPSIZE=5.000000
_STEPMODE='S'
_START=0.000000
_THETA=22.5
_2THETA=45
_KHI=5.000000
_PHI=0.000000
_X=0.000000
_Y=0.000000
_Z=0.000000
_DIVERGENCE=3.000000
_ANTISCATTER=3.000000
_DETECTOR=1
; S.C.
_HV=687
_GAIN=80
_LLD=0.690000
_ULD=1.866000
_DETECTORSLIT='unkn'
_AUX1=0.000000
_AUX2=0.000000
_AUX3=0.000000
_TIMESTARTED=3516
_TEMP_RATE=0.000000
_TEMP_DELAY=0.000000
_KV=35
_MA=40
_RANGE_WL=1.788970
_3DPLANE=0
_2THETACOUNTS
   0.0000      5270
; (Data for Range number 20)
_DRIVE='PHI'
_STEPTIME=20
_STEPSIZE=5.000000
_STEPMODE='S'
_START=0.000000
_THETA=22.5
_2THETA=45
_KHI=10
_PHI=0.000000
_X=0.000000
_Y=0.000000
_Z=0.000000
_DIVERGENCE=3.000000
_ANTISCATTER=3.000000
_DETECTOR=1
; S.C.
_HV=687
_GAIN=80
_LLD=0.690000
_ULD=1.866000
_DETECTORSLIT='unkn'
_AUX1=0.000000
_AUX2=0.000000
_AUX3=0.000000
_TIMESTARTED=3540
_TEMP_RATE=0.000000
_TEMP_DELAY=0.000000
_KV=35
_MA=40
_RANGE_WL=1.788970
_3DPLANE=0
_2THETACOUNTS
   0.0000      5386
; (Data for Range number 21)
_DRIVE='PHI'
_STEPTIME=20
_STEPSIZE=5.000000
_STEPMODE='S'
_START=0.000000
_THETA=22.5
_2THETA=45
_KHI=15
_PHI=0.000000
_X=0.000000
_Y=0.000000
_Z=0.000000
_DIVERGENCE=3.000000
_ANTISCATTER=3.000000
_DETECTOR=1
; S.C.
_HV=687
_GAIN=80
_LLD=0.690000
_ULD=1.866000
_DETECTORSLIT='unkn'
_AUX1=0.000000
_AUX2=0.000000
_AUX3=0.000000
_TIMESTARTED=3565
_TEMP_RATE=0.000000
_TEMP_DELAY=0.000000
_KV=35
_MA=40
_RANGE_WL=1.788970
_3DPLANE=0
_2THETACOUNTS
   0.0000      5338
; (Data for Range number 22)
_DRIVE='PHI'
_STEPTIME=20
_STEPSIZE=5.000000
_STEPMODE='S'
_START=0.000000
_THETA=22.5
_2THETA=45
_KHI=20
_PHI=0.000000
_X=0.000000
_Y=0.000000
_Z=0.000000
_DIVERGENCE=3.000000
_ANTISCATTER=3.000000
_DETECTOR=1
; S.C.
_HV=687
_GAIN=80
_LLD=0.690000
_ULD=1.866000
_DETECTORSLIT='unkn'
_AUX1=0.000000
_AUX2=0.000000
_AUX3=0.000000
_TIMESTARTED=3590
_TEMP_RATE=0.000000
_TEMP_DELAY=0.000000
_KV=35
_MA=40
_RANGE_WL=1.788970
_3DPLANE=0
_2THETACOUNTS
   0.0000      5479
; (Data for Range number 23)
_DRIVE='PHI'
_STEPTIME=20
_STEPSIZE=5.000000
_STEPMODE='S'
_START=0.000000
_THETA=22.5
_2THETA=45
_KHI=25
_PHI=0.000000
_X=0.000000
_Y=0.000000
_Z=0.000000
_DIVERGENCE=3.000000
_ANTISCATTER=3.000000
_DETECTOR=1
; S.C.
_HV=687
_GAIN=80
_LLD=0.690000
_ULD=1.866000
_DETECTORSLIT='unkn'
_AUX1=0.000000
_AUX2=0.000000
_AUX3=0.000000
_TIMESTARTED=3614
_TEMP_RATE=0.000000
_TEMP_DELAY=0.000000
_KV=35
_MA=40
_RANGE_WL=1.788970
_3DPLANE=0
_2THETACOUNTS
   0.0000      5431
; (Data for Range number 24)
_DRIVE='PHI'
_STEPTIME=20
_STEPSIZE=5.000000
_STEPMODE='S'
_START=0.000000
_THETA=22.5
_2THETA=45
_KHI=30
_PHI=0.000000
_X=0.000000
_Y=0.000000
_Z=0.000000
_DIVERGENCE=3.000000
_ANTISCATTER=3.000000
_DETECTOR=1
; S.C.
_HV=687
_GAIN=80
_LLD=0.690000
_ULD=1.866000
_DETECTORSLIT='unkn'
_AUX1=0.000000
_AUX2=0.000000
_AUX3=0.000000
_TIMESTARTED=3639
_TEMP_RATE=0.000000
_TEMP_DELAY=0.000000
_KV=35
_MA=40
_RANGE_WL=1.788970
_3DPLANE=0
_2THETACOUNTS
   0.0000      5553
; (Data for Range number 25)
_DRIVE='PHI'
_STEPTIME=20
_STEPSIZE=5.000000
_STEPMODE='S'
_START=0.000000
_THETA=22.5
_2THETA=45
_KHI=35
_PHI=0.000000
_X=0.000000
_Y=0.000000
_Z=0.000000
_DIVERGENCE=3.000000
_ANTISCATTER=3.000000
_DETECTOR=1
; S.C.
_HV=687
_GAIN=80
_LLD=0.690000
_ULD=1.866000
_DETECTORSLIT='unkn'
_AUX1=0.000000
_AUX2=0.000000
_AUX3=0.000000
_TIMESTARTED=3664
_TEMP_RATE=0.000000
_TEMP_DELAY=0.000000
_KV=35
_MA=40
_RANGE_WL=1.788970
_3DPLANE=0
_2THETACOUNTS
   0.0000      5391
; (Data for Range number 26)
_DRIVE='PHI'
_STEPTIME=20
_STEPSIZE=5.000000
_STEPMODE='S'
_START=0.000000
_THETA=22.5
_2THETA=45
_KHI=40
_PHI=0.000000
_X=0.000000
_Y=0.000000
_Z=0.000000
_DIVERGENCE=3.000000
_ANTISCATTER=3.000000
_DETECTOR=1
; S.C.
_HV=687
_GAIN=80
_LLD=0.690000
_ULD=1.866000
_DETECTORSLIT='unkn'
_AUX1=0.000000
_AUX2=0.000000
_AUX3=0.000000
_TIMESTARTED=3689
_TEMP_RATE=0.000000
_TEMP_DELAY=0.000000
_KV=35
_MA=40
_RANGE_WL=1.788970
_3DPLANE=0
_2THETACOUNTS
   0.0000      5420
; (Data for Range number 27)
_DRIVE='PHI'
_STEPTIME=20
_STEPSIZE=5.000000
_STEPMODE='S'
_START=0.000000
_THETA=22.5
_2THETA=45
_KHI=45
_PHI=0.000000
_X=0.000000
_Y=0.000000
_Z=0.000000
_DIVERGENCE=3.000000
_ANTISCATTER=3.000000
_DETECTOR=1
; S.C.
_HV=687
_GAIN=80
_LLD=0.690000
_ULD=1.866000
_DETECTORSLIT='unkn'
_AUX1=0.000000
_AUX2=0.000000
_AUX3=0.000000
_TIMESTARTED=3714
_TEMP_RATE=0.000000
_TEMP_DELAY=0.000000
_KV=35
_MA=40
_RANGE_WL=1.788970
_3DPLANE=0
_2THETACOUNTS
   0.0000      5386
; (Data for Range number 28)
_DRIVE='PHI'
_STEPTIME=20
_STEPSIZE=5.000000
_STEPMODE='S'
_START=0.000000
_THETA=22.5
_2THETA=45
_KHI=50
_PHI=0.000000
_X=0.000000
_Y=0.000000
_Z=0.000000
_DIVERGENCE=3.000000
_ANTISCATTER=3.000000
_DETECTOR=1
; S.C.
_HV=687
_GAIN=80
_LLD=0.690000
_ULD=1.866000
_DETECTORSLIT='unkn'
_AUX1=0.000000
_AUX2=0.000000
_AUX3=0.000000
_TIMESTARTED=3739
_TEMP_RATE=0.000000
_TEMP_DELAY=0.000000
_KV=35
_MA=40
_RANGE_WL=1.788970
_3DPLANE=0
_2THETACOUNTS
   0.0000      5372
; (Data for Range number 29)
_DRIVE='PHI'
_STEPTIME=20
_STEPSIZE=5.000000
_STEPMODE='S'
_START=0.000000
_THETA=22.5
_2THETA=45
_KHI=55
_PHI=0.000000
_X=0.000000
_Y=0.000000
_Z=0.000000
_DIVERGENCE=3.000000
_ANTISCATTER=3.000000
_DETECTOR=1
; S.C.
_HV=687
_GAIN=80
_LLD=0.690000
_ULD=1.866000
_DETECTORSLIT='unkn'
_AUX1=0.000000
_AUX2=0.000000
_AUX3=0.000000
_TIMESTARTED=3764
_TEMP_RATE=0.000000
_TEMP_DELAY=0.000000
_KV=35
_MA=40
_RANGE_WL=1.788970
_3DPLANE=0
_2THETACOUNTS
   0.0000      5433
; (Data for Range number 30)
_DRIVE='PHI'
_STEPTIME=20
_STEPSIZE=5.000000
_STEPMODE='S'
_START=0.000000
_THETA=22.5
_2THETA=45
_KHI=60
_PHI=0.000000
_X=0.000000
_Y=0.000000
_Z=0.000000
_DIVERGENCE=3.000000
_ANTISCATTER=3.000000
_DETECTOR=1
; S.C.
_HV=687
_GAIN=80
_LLD=0.690000
_ULD=1.866000
_DETECTORSLIT='unkn'
_AUX1=0.000000
_AUX2=0.000000
_AUX3=0.000000
_TIMESTARTED=3788
_TEMP_RATE=0.000000
_TEMP_DELAY=0.000000
_KV=35
_MA=40
_RANGE_WL=1.788970
_3DPLANE=0
_2THETACOUNTS
   0.0000      5455
; (Data for Range number 31)
_DRIVE='PHI'
_STEPTIME=20
_STEPSIZE=5.000000
_STEPMODE='S'
_START=0.000000
_THETA=22.5
_2THETA=45
_KHI=65
_PHI=0.000000
_X=0.000000
_Y=0.000000
_Z=0.000000
_DIVERGENCE=3.000000
_ANTISCATTER=3.000000
_DETECTOR=1
; S.C.
_HV=687
_GAIN=80
_LLD=0.690000
_ULD=1.866000
[...]
  85.0000       933
  90.0000       907
  95.0000       922
 100.0000       923
 105.0000       973
 110.0000       884
 115.0000       909
 120.0000       883
 125.0000       911
 130.0000       941
 135.0000       941
 140.0000       899
 145.0000       960
 150.0000       950
 155.0000       924
 160.0000       917
 165.0000       862
 170.0000       930
 175.0000       911
 180.0000       967
 185.0000       896
 190.0000       898
 195.0000       922
 200.0000       885
 205.0000       941
 210.0000       931
 215.0000       962
 220.0000       916
 225.0000       921
 230.0000       965
 235.0000       899
 240.0000       959
 245.0000       901
 250.0000       985
 255.0000       897
 260.0000       941
 265.0000       985
 270.0000       912
 275.0000       915
 280.0000       927
 285.0000       924
 290.0000       918
 295.0000       904
 300.0000       942
 305.0000       938
 310.0000       993
 315.0000       943
 320.0000       940
 325.0000       910
 330.0000       882
 335.0000       967
 340.0000       957
 345.0000       849
 350.0000       884
 355.0000       896
; (Data for Range number 170)
_DRIVE='PHI'
_STEPTIME=2.000000
_STEPSIZE=5.000000
_STEPMODE='C'
_START=0.000000
_THETA=55.7
_2THETA=111.4
_KHI=80
_PHI=0.000000
_X=0.000000
_Y=0.000000
_Z=0.000000
_DIVERGENCE=3.000000
_ANTISCATTER=3.000000
_DETECTOR=1
; S.C.
_HV=687
_GAIN=80
_LLD=0.690000
_ULD=1.866000
_DETECTORSLIT='unkn'
_AUX1=0.000000
_AUX2=0.000000
_AUX3=0.000000
_TIMESTARTED=16370
_TEMP_RATE=0.000000
_TEMP_DELAY=0.000000
_KV=35
_MA=40
_RANGE_WL=1.788970
_3DPLANE=0
_2THETACOUNTS
   0.0000       822
   5.0000       851
  10.0000       714
  15.0000       836
  20.0000       826
  25.0000       797
  30.0000       779
  35.0000       740
  40.0000       836
  45.0000       792
  50.0000       835
  55.0000       804
  60.0000       868
  65.0000       816
  70.0000       760
  75.0000       740
  80.0000       780
  85.0000       777
  90.0000       806
  95.0000       850
 100.0000       841
 105.0000       821
 110.0000       749
 115.0000       810
 120.0000       748
 125.0000       764
 130.0000       827
 135.0000       813
 140.0000       804
 145.0000       809
 150.0000       802
 155.0000       805
 160.0000       820
 165.0000       788
 170.0000       799
 175.0000       768
 180.0000       844
 185.0000       762
 190.0000       840
 195.0000       787
 200.0000       823
 205.0000       779
 210.0000       745
 215.0000       788
 220.0000       782
 225.0000       767
 230.0000       853
 235.0000       808
 240.0000       767
 245.0000       791
 250.0000       758
 255.0000       775
 260.0000       813
 265.0000       812
 270.0000       826
 275.0000       786
 280.0000       829
 285.0000       792
 290.0000       804
 295.0000       768
 300.0000       774
 305.0000       774
 310.0000       818
 315.0000       807
 320.0000       765
 325.0000       827
 330.0000       790
 335.0000       801
 340.0000       766
 345.0000       744
 350.0000       766
 355.0000       780
; (Data for Range number 171)
_DRIVE='PHI'
_STEPTIME=20
_STEPSIZE=5.000000
_STEPMODE='S'
_START=0.000000
_THETA=52.5
_2THETA=105
_KHI=0.000000
_PHI=0.000000
_X=0.000000
_Y=0.000000
_Z=0.000000
_DIVERGENCE=3.000000
_ANTISCATTER=3.000000
_DETECTOR=1
; S.C.
_HV=687
_GAIN=80
_LLD=0.690000
_ULD=1.866000
_DETECTORSLIT='unkn'
_AUX1=0.000000
_AUX2=0.000000
_AUX3=0.000000
_TIMESTARTED=16572
_TEMP_RATE=0.000000
_TEMP_DELAY=0.000000
_KV=35
_MA=40
_RANGE_WL=1.788970
_3DPLANE=0
_2THETACOUNTS
   0.0000      5134
; (Data for Range number 172)
_DRIVE='PHI'
_STEPTIME=20
_STEPSIZE=5.000000
_STEPMODE='S'
_START=0.000000
_THETA=52.5
_2THETA=105
_KHI=5.000000
_PHI=0.000000
_X=0.000000
_Y=0.000000
_Z=0.000000
_DIVERGENCE=3.000000
_ANTISCATTER=3.000000
_DETECTOR=1
; S.C.
_HV=687
_GAIN=80
_LLD=0.690000
_ULD=1.866000
_DETECTORSLIT='unkn'
_AUX1=0.000000
_AUX2=0.000000
_AUX3=0.000000
_TIMESTARTED=16597
_TEMP_RATE=0.000000
_TEMP_DELAY=0.000000
_KV=35
_MA=40
_RANGE_WL=1.788970
_3DPLANE=0
_2THETACOUNTS
   0.0000      5036
; (Data for Range number 173)
_DRIVE='PHI'
_STEPTIME=20
_STEPSIZE=5.000000
_STEPMODE='S'
_START=0.000000
_THETA=52.5
_2THETA=105
_KHI=10
_PHI=0.000000
_X=0.000000
_Y=0.000000
_Z=0.000000
_DIVERGENCE=3.000000
_ANTISCATTER=3.000000
_DETECTOR=1
; S.C.
_HV=687
_GAIN=80
_LLD=0.690000
_ULD=1.866000
_DETECTORSLIT='unkn'
_AUX1=0.000000
_AUX2=0.000000
_AUX3=0.000000
_TIMESTARTED=16622
_TEMP_RATE=0.000000
_TEMP_DELAY=0.000000
_KV=35
_MA=40
_RANGE_WL=1.788970
_3DPLANE=0
_2THETACOUNTS
   0.0000      5018
; (Data for Range number 174)
_DRIVE='PHI'
_STEPTIME=20
_STEPSIZE=5.000000
_STEPMODE='S'
_START=0.000000
_THETA=52.5
_2THETA=105
_KHI=15
_PHI=0.000000
_X=0.000000
_Y=0.000000
_Z=0.000000
_DIVERGENCE=3.000000
_ANTISCATTER=3.000000
_DETECTOR=1
; S.C.
_HV=687
_GAIN=80
_LLD=0.690000
_ULD=1.866000
_DETECTORSLIT='unkn'
_AUX1=0.000000
_AUX2=0.000000
_AUX3=0.000000
_TIMESTARTED=16647
_TEMP_RATE=0.000000
_TEMP_DELAY=0.000000
_KV=35
_MA=40
_RANGE_WL=1.788970
_3DPLANE=0
_2THETACOUNTS
   0.0000      5089
; (Data for Range number 175)
_DRIVE='PHI'
_STEPTIME=20
_STEPSIZE=5.000000
_STEPMODE='S'
_START=0.000000
_THETA=52.5
_2THETA=105
_KHI=20
_PHI=0.000000
_X=0.000000
_Y=0.000000
_Z=0.000000
_DIVERGENCE=3.000000
_ANTISCATTER=3.000000
_DETECTOR=1
; S.C.
_HV=687
_GAIN=80
_LLD=0.690000
_ULD=1.866000
_DETECTORSLIT='unkn'
_AUX1=0.000000
_AUX2=0.000000
_AUX3=0.000000
_TIMESTARTED=16671
_TEMP_RATE=0.000000
_TEMP_DELAY=0.000000
_KV=35
_MA=40
_RANGE_WL=1.788970
_3DPLANE=0
_2THETACOUNTS
   0.0000      5070
; (Data for Range number 176)
_DRIVE='PHI'
_STEPTIME=20
_STEPSIZE=5.000000
_STEPMODE='S'
_START=0.000000
_THETA=52.5
_2THETA=105
_KHI=25
_PHI=0.000000
_X=0.000000
_Y=0.000000
_Z=0.000000
_DIVERGENCE=3.000000
_ANTISCATTER=3.000000
_DETECTOR=1
; S.C.
_HV=687
_GAIN=80
_LLD=0.690000
_ULD=1.866000
_DETECTORSLIT='unkn'
_AUX1=0.000000
_AUX2=0.000000
_AUX3=0.000000
_TIMESTARTED=16696
_TEMP_RATE=0.000000
_TEMP_DELAY=0.000000
_KV=35
_MA=40
_RANGE_WL=1.788970
_3DPLANE=0
_2THETACOUNTS
   0.0000      5259
; (Data for Range number 177)
_DRIVE='PHI'
_STEPTIME=20
_STEPSIZE=5.000000
_STEPMODE='S'
_START=0.000000
_THETA=52.5
_2THETA=105
_KHI=30
_PHI=0.000000
_X=0.000000
_Y=0.000000
_Z=0.000000
_DIVERGENCE=3.000000
_ANTISCATTER=3.000000
_DETECTOR=1
; S.C.
_HV=687
_GAIN=80
_LLD=0.690000
_ULD=1.866000
_DETECTORSLIT='unkn'
_AUX1=0.000000
_AUX2=0.000000
_AUX3=0.000000
_TIMESTARTED=16721
_TEMP_RATE=0.000000
_TEMP_DELAY=0.000000
_KV=35
_MA=40
_RANGE_WL=1.788970
_3DPLANE=0
_2THETACOUNTS
   0.0000      5083
; (Data for Range number 178)
_DRIVE='PHI'
_STEPTIME=20
_STEPSIZE=5.000000
_STEPMODE='S'
_START=0.000000
_THETA=52.5
_2THETA=105
_KHI=35
_PHI=0.000000
_X=0.000000
_Y=0.000000
_Z=0.000000
_DIVERGENCE=3.000000
_ANTISCATTER=3.000000
_DETECTOR=1
; S.C.
_HV=687
_GAIN=80
_LLD=0.690000
_ULD=1.866000
_DETECTORSLIT='unkn'
_AUX1=0.000000
_AUX2=0.000000
_AUX3=0.000000
_TIMESTARTED=16747
_TEMP_RATE=0.000000
_TEMP_DELAY=0.000000
_KV=35
_MA=40
_RANGE_WL=1.788970
_3DPLANE=0
_2THETACOUNTS
   0.0000      4986
; (Data for Range number 179)
_DRIVE='PHI'
_STEPTIME=20
_STEPSIZE=5.000000
_STEPMODE='S'
_START=0.000000
_THETA=52.5
_2THETA=105
_KHI=40
_PHI=0.000000
_X=0.000000
_Y=0.000000
_Z=0.000000
_DIVERGENCE=3.000000
_ANTISCATTER=3.000000
_DETECTOR=1
; S.C.
_HV=687
_GAIN=80
_LLD=0.690000
_ULD=1.866000
_DETECTORSLIT='unkn'
_AUX1=0.000000
_AUX2=0.000000
_AUX3=0.000000
_TIMESTARTED=16771
_TEMP_RATE=0.000000
_TEMP_DELAY=0.000000
_KV=35
_MA=40
_RANGE_WL=1.788970
_3DPLANE=0
_2THETACOUNTS
   0.0000      5088
; (Data for Range number 180)
_DRIVE='PHI'
_STEPTIME=20
_STEPSIZE=5.000000
_STEPMODE='S'
_START=0.000000
_THETA=52.5
_2THETA=105
_KHI=45
_PHI=0.000000
_X=0.000000
_Y=0.000000
_Z=0.000000
_DIVERGENCE=3.000000
_ANTISCATTER=3.000000
_DETECTOR=1
; S.C.
_HV=687
_GAIN=80
_LLD=0.690000
_ULD=1.866000
_DETECTORSLIT='unkn'
_AUX1=0.000000
_AUX2=0.000000
_AUX3=0.000000
_TIMESTARTED=16796
_TEMP_RATE=0.000000
_TEMP_DELAY=0.000000
_KV=35
_MA=40
_RANGE_WL=1.788970
_3DPLANE=0
_2THETACOUNTS
   0.0000      4919
; (Data for Range number 181)
_DRIVE='PHI'
_STEPTIME=20
_STEPSIZE=5.000000
_STEPMODE='S'
_START=0.000000
_THETA=52.5
_2THETA=105
_KHI=50
_PHI=0.000000
_X=0.000000
_Y=0.000000
_Z=0.000000
_DIVERGENCE=3.000000
_ANTISCATTER=3.000000
_DETECTOR=1
; S.C.
_HV=687
_GAIN=80
_LLD=0.690000
_ULD=1.866000
_DETECTORSLIT='unkn'
_AUX1=0.000000
_AUX2=0.000000
_AUX3=0.000000
_TIMESTARTED=16821
_TEMP_RATE=0.000000
_TEMP_DELAY=0.000000
_KV=35
_MA=40
_RANGE_WL=1.788970
_3DPLANE=0
_2THETACOUNTS
   0.0000      5056
; (Data for Range number 182)
_DRIVE='PHI'
_STEPTIME=20
_STEPSIZE=5.000000
_STEPMODE='S'
_START=0.000000
_THETA=52.5
_2THETA=105
_KHI=55
_PHI=0.000000
_X=0.000000
_Y=0.000000
_Z=0.000000
_DIVERGENCE=3.000000
_ANTISCATTER=3.000000
_DETECTOR=1
; S.C.
_HV=687
_GAIN=80
_LLD=0.690000
_ULD=1.866000
_DETECTORSLIT='unkn'
_AUX1=0.000000
_AUX2=0.000000
_AUX3=0.000000
_TIMESTARTED=16845
_TEMP_RATE=0.000000
_TEMP_DELAY=0.000000
_KV=35
_MA=40
_RANGE_WL=1.788970
_3DPLANE=0
_2THETACOUNTS
   0.0000      5110
; (Data for Range number 183)
_DRIVE='PHI'
_STEPTIME=20
_STEPSIZE=5.000000
_STEPMODE='S'
_START=0.000000
_THETA=52.5
_2THETA=105
_KHI=60
_PHI=0.000000
_X=0.000000
_Y=0.000000
_Z=0.000000
_DIVERGENCE=3.000000
_ANTISCATTER=3.000000
_DETECTOR=1
; S.C.
_HV=687
_GAIN=80
_LLD=0.690000
_ULD=1.866000
_DETECTORSLIT='unkn'
_AUX1=0.000000
_AUX2=0.000000
_AUX3=0.000000
_TIMESTARTED=16870
_TEMP_RATE=0.000000
_TEMP_DELAY=0.000000
_KV=35
_MA=40
_RANGE_WL=1.788970
_3DPLANE=0
_2THETACOUNTS
   0.0000      4989
; (Data for Range number 184)
_DRIVE='PHI'
_STEPTIME=20
_STEPSIZE=5.000000
_STEPMODE='S'
_START=0.000000
_THETA=52.5
_2THETA=105
_KHI=65
_PHI=0.000000
_X=0.000000
_Y=0.000000
_Z=0.000000
_DIVERGENCE=3.000000
_ANTISCATTER=3.000000
_DETECTOR=1
; S.C.
_HV=687
_GAIN=80
_LLD=0.690000
_ULD=1.866000
_DETECTORSLIT='unkn'
_AUX1=0.000000
_AUX2=0.000000
_AUX3=0.000000
_TIMESTARTED=16894
_TEMP_RATE=0.000000
_TEMP_DELAY=0.000000
_KV=35
_MA=40
_RANGE_WL=1.788970
_3DPLANE=0
_2THETACOUNTS
   0.0000      4933
; (Data for Range number 185)
_DRIVE='PHI'
_STEPTIME=20
_STEPSIZE=5.000000
_STEPMODE='S'
_START=0.000000
_THETA=52.5
_2THETA=105
_KHI=70
_PHI=0.000000
_X=0.000000
_Y=0.000000
_Z=0.000000
_DIVERGENCE=3.000000
_ANTISCATTER=3.000000
_DETECTOR=1
; S.C.
_HV=687
_GAIN=80
_LLD=0.690000
_ULD=1.866000
_DETECTORSLIT='unkn'
_AUX1=0.000000
_AUX2=0.000000
_AUX3=0.000000
_TIMESTARTED=16919
_TEMP_RATE=0.000000
_TEMP_DELAY=0.000000
_KV=35
_MA=40
_RANGE_WL=1.788970
_3DPLANE=0
_2THETACOUNTS
   0.0000      4900
; (Data for Range number 186)
_DRIVE='PHI'
_STEPTIME=20
_STEPSIZE=5.000000
_STEPMODE='S'
_START=0.000000
_THETA=52.5
_2THETA=105
_KHI=75
_PHI=0.000000
_X=0.000000
_Y=0.000000
_Z=0.000000
_DIVERGENCE=3.000000
_ANTISCATTER=3.000000
_DETECTOR=1
; S.C.
_HV=687
_GAIN=80
_LLD=0.690000
_ULD=1.866000
_DETECTORSLIT='unkn'
_AUX1=0.000000
_AUX2=0.000000
_AUX3=0.000000
_TIMESTARTED=16943
_TEMP_RATE=0.000000
_TEMP_DELAY=0.000000
_KV=35
_MA=40
_RANGE_WL=1.788970
_3DPLANE=0
_2THETACOUNTS
   0.0000      4851
; (Data for Range number 187)
_DRIVE='PHI'
_STEPTIME=20
_STEPSIZE=5.000000
_STEPMODE='S'
_START=0.000000
_THETA=52.5
_2THETA=105
_KHI=80
_PHI=0.000000
_X=0.000000
_Y=0.000000
_Z=0.000000
_DIVERGENCE=3.000000
_ANTISCATTER=3.000000
_DETECTOR=1
; S.C.
_HV=687
_GAIN=80
_LLD=0.690000
_ULD=1.866000
_DETECTORSLIT='unkn'
_AUX1=0.000000
_AUX2=0.000000
_AUX3=0.000000
_TIMESTARTED=16968
_TEMP_RATE=0.000000
_TEMP_DELAY=0.000000
_KV=35
_MA=40
_RANGE_WL=1.788970
_3DPLANE=0
_2THETACOUNTS
   0.0000      4744
; (Data for Range number 188)
_DRIVE='PHI'
_STEPTIME=20
_STEPSIZE=5.000000
_STEPMODE='S'
_START=0.000000
_THETA=57.5
_2THETA=115
_KHI=0.000000
_PHI=0.000000
_X=0.000000
_Y=0.000000
_Z=0.000000
_DIVERGENCE=3.000000
_ANTISCATTER=3.000000
_DETECTOR=1
; S.C.
_HV=687
_GAIN=80
_LLD=0.690000
_ULD=1.866000
_DETECTORSLIT='unkn'
_AUX1=0.000000
_AUX2=0.000000
_AUX3=0.000000
_TIMESTARTED=17011
_TEMP_RATE=0.000000
_TEMP_DELAY=0.000000
_KV=35
_MA=40
_RANGE_WL=1.788970
_3DPLANE=0
_2THETACOUNTS
   0.0000      5252
; (Data for Range number 189)
_DRIVE='PHI'
_STEPTIME=20
_STEPSIZE=5.000000
_STEPMODE='S'
_START=0.000000
_THETA=57.5
_2THETA=115
_KHI=5.000000
_PHI=0.000000
_X=0.000000
_Y=0.000000
_Z=0.000000
_DIVERGENCE=3.000000
_ANTISCATTER=3.000000
_DETECTOR=1
; S.C.
_HV=687
_GAIN=80
_LLD=0.690000
_ULD=1.866000
_DETECTORSLIT='unkn'
_AUX1=0.000000
_AUX2=0.000000
_AUX3=0.000000
_TIMESTARTED=17035
_TEMP_RATE=0.000000
_TEMP_DELAY=0.000000
_KV=35
_MA=40
_RANGE_WL=1.788970
_3DPLANE=0
_2THETACOUNTS
   0.0000      5324
; (Data for Range number 190)
_DRIVE='PHI'
_STEPTIME=20
_STEPSIZE=5.000000
_STEPMODE='S'
_START=0.000000
_THETA=57.5
_2THETA=115
_KHI=10
_PHI=0.000000
_X=0.000000
_Y=0.000000
_Z=0.000000
_DIVERGENCE=3.000000
_ANTISCATTER=3.000000
_DETECTOR=1
; S.C.
_HV=687
_GAIN=80
_LLD=0.690000
_ULD=1.866000
_DETECTORSLIT='unkn'
_AUX1=0.000000
_AUX2=0.000000
_AUX3=0.000000
_TIMESTARTED=17060
_TEMP_RATE=0.000000
_TEMP_DELAY=0.000000
_KV=35
_MA=40
_RANGE_WL=1.788970
_3DPLANE=0
_2THETACOUNTS
   0.0000      5348
; (Data for Range number 191)
_DRIVE='PHI'
_STEPTIME=20
_STEPSIZE=5.000000
_STEPMODE='S'
_START=0.000000
_THETA=57.5
_2THETA=115
_KHI=15
_PHI=0.000000
_X=0.000000
_Y=0.000000
_Z=0.000000
_DIVERGENCE=3.000000
_ANTISCATTER=3.000000
_DETECTOR=1
; S.C.
_HV=687
_GAIN=80
_LLD=0.690000
_ULD=1.866000
_DETECTORSLIT='unkn'
_AUX1=0.000000
_AUX2=0.000000
_AUX3=0.000000
_TIMESTARTED=17085
_TEMP_RATE=0.000000
_TEMP_DELAY=0.000000
_KV=35
_MA=40
_RANGE_WL=1.788970
_3DPLANE=0
_2THETACOUNTS
   0.0000      5341
; (Data for Range number 192)
_DRIVE='PHI'
_STEPTIME=20
_STEPSIZE=5.000000
_STEPMODE='S'
_START=0.000000
_THETA=57.5
_2THETA=115
_KHI=20
_PHI=0.000000
_X=0.000000
_Y=0.000000
_Z=0.000000
_DIVERGENCE=3.000000
_ANTISCATTER=3.000000
_DETECTOR=1
; S.C.
_HV=687
_GAIN=80
_LLD=0.690000
_ULD=1.866000
_DETECTORSLIT='unkn'
_AUX1=0.000000
_AUX2=0.000000
_AUX3=0.000000
_TIMESTARTED=17110
_TEMP_RATE=0.000000
_TEMP_DELAY=0.000000
_KV=35
_MA=40
_RANGE_WL=1.788970
_3DPLANE=0
_2THETACOUNTS
   0.0000      5452
; (Data for Range number 193)
_DRIVE='PHI'
_STEPTIME=20
_STEPSIZE=5.000000
_STEPMODE='S'
_START=0.000000
_THETA=57.5
_2THETA=115
_KHI=25
_PHI=0.000000
_X=0.000000
_Y=0.000000
_Z=0.000000
_DIVERGENCE=3.000000
_ANTISCATTER=3.000000
_DETECTOR=1
; S.C.
_HV=687
_GAIN=80
_LLD=0.690000
_ULD=1.866000
_DETECTORSLIT='unkn'
_AUX1=0.000000
_AUX2=0.000000
_AUX3=0.000000
_TIMESTARTED=17135
_TEMP_RATE=0.000000
_TEMP_DELAY=0.000000
_KV=35
_MA=40
_RANGE_WL=1.788970
_3DPLANE=0
_2THETACOUNTS
   0.0000      5283
; (Data for Range number 194)
_DRIVE='PHI'
_STEPTIME=20
_STEPSIZE=5.000000
_STEPMODE='S'
_START=0.000000
_THETA=57.5
_2THETA=115
_KHI=30
_PHI=0.000000
_X=0.000000
_Y=0.000000
_Z=0.000000
_DIVERGENCE=3.000000
_ANTISCATTER=3.000000
_DETECTOR=1
; S.C.
_HV=687
_GAIN=80
_LLD=0.690000
_ULD=1.866000
_DETECTORSLIT='unkn'
_AUX1=0.000000
_AUX2=0.000000
_AUX3=0.000000
_TIMESTARTED=17159
_TEMP_RATE=0.000000
_TEMP_DELAY=0.000000
_KV=35
_MA=40
_RANGE_WL=1.788970
_3DPLANE=0
_2THETACOUNTS
   0.0000      5312
; (Data for Range number 195)
_DRIVE='PHI'
_STEPTIME=20
_STEPSIZE=5.000000
_STEPMODE='S'
_START=0.000000
_THETA=57.5
_2THETA=115
_KHI=35
_PHI=0.000000
_X=0.000000
_Y=0.000000
_Z=0.000000
_DIVERGENCE=3.000000
_ANTISCATTER=3.000000
_DETECTOR=1
; S.C.
_HV=687
_GAIN=80
_LLD=0.690000
_ULD=1.866000
_DETECTORSLIT='unkn'
_AUX1=0.000000
_AUX2=0.000000
_AUX3=0.000000
_TIMESTARTED=17184
_TEMP_RATE=0.000000
_TEMP_DELAY=0.000000
_KV=35
_MA=40
_RANGE_WL=1.788970
_3DPLANE=0
_2THETACOUNTS
   0.0000      5313
; (Data for Range number 196)
_DRIVE='PHI'
_STEPTIME=20
_STEPSIZE=5.000000
_STEPMODE='S'
_START=0.000000
_THETA=57.5
_2THETA=115
_KHI=40
_PHI=0.000000
_X=0.000000
_Y=0.000000
_Z=0.000000
_DIVERGENCE=3.000000
_ANTISCATTER=3.000000
_DETECTOR=1
; S.C.
_HV=687
_GAIN=80
_LLD=0.690000
_ULD=1.866000
_DETECTORSLIT='unkn'
_AUX1=0.000000
_AUX2=0.000000
_AUX3=0.000000
_TIMESTARTED=17209
_TEMP_RATE=0.000000
_TEMP_DELAY=0.000000
_KV=35
_MA=40
_RANGE_WL=1.788970
_3DPLANE=0
_2THETACOUNTS
   0.0000      5318
; (Data for Range number 197)
_DRIVE='PHI'
_STEPTIME=20
_STEPSIZE=5.000000
_STEPMODE='S'
_START=0.000000
_THETA=57.5
_2THETA=115
_KHI=45
_PHI=0.000000
_X=0.000000
_Y=0.000000
_Z=0.000000
_DIVERGENCE=3.000000
_ANTISCATTER=3.000000
_DETECTOR=1
; S.C.
_HV=687
_GAIN=80
_LLD=0.690000
_ULD=1.866000
_DETECTORSLIT='unkn'
_AUX1=0.000000
_AUX2=0.000000
_AUX3=0.000000
_TIMESTARTED=17234
_TEMP_RATE=0.000000
_TEMP_DELAY=0.000000
_KV=35
_MA=40
_RANGE_WL=1.788970
_3DPLANE=0
_2THETACOUNTS
   0.0000      5271
; (Data for Range number 198)
_DRIVE='PHI'
_STEPTIME=20
_STEPSIZE=5.000000
_STEPMODE='S'
_START=0.000000
_THETA=57.5
_2THETA=115
_KHI=50
_PHI=0.000000
_X=0.000000
_Y=0.000000
_Z=0.000000
_DIVERGENCE=3.000000
_ANTISCATTER=3.000000
_DETECTOR=1
; S.C.
_HV=687
_GAIN=80
_LLD=0.690000
_ULD=1.866000
_DETECTORSLIT='unkn'
_AUX1=0.000000
_AUX2=0.000000
_AUX3=0.000000
_TIMESTARTED=17259
_TEMP_RATE=0.000000
_TEMP_DELAY=0.000000
_KV=35
_MA=40
_RANGE_WL=1.788970
_3DPLANE=0
_2THETACOUNTS
   0.0000      5255
; (Data for Range number 199)
_DRIVE='PHI'
_STEPTIME=20
_STEPSIZE=5.000000
_STEPMODE='S'
_START=0.000000
_THETA=57.5
_2THETA=115
_KHI=55
_PHI=0.000000
_X=0.000000
_Y=0.000000
_Z=0.000000
_DIVERGENCE=3.000000
_ANTISCATTER=3.000000
_DETECTOR=1
; S.C.
_HV=687
_GAIN=80
_LLD=0.690000
_ULD=1.866000
_DETECTORSLIT='unkn'
_AUX1=0.000000
_AUX2=0.000000
_AUX3=0.000000
_TIMESTARTED=17283
_TEMP_RATE=0.000000
_TEMP_DELAY=0.000000
_KV=35
_MA=40
_RANGE_WL=1.788970
_3DPLANE=0
_2THETACOUNTS
   0.0000      5235
; (Data for Range number 200)
_DRIVE='PHI'
_STEPTIME=20
_STEPSIZE=5.000000
_STEPMODE='S'
_START=0.000000
_THETA=57.5
_2THETA=115
_KHI=60
_PHI=0.000000
_X=0.000000
_Y=0.000000
_Z=0.000000
_DIVERGENCE=3.000000
_ANTISCATTER=3.000000
_DETECTOR=1
; S.C.
_HV=687
_GAIN=80
_LLD=0.690000
_ULD=1.866000
_DETECTORSLIT='unkn'
_AUX1=0.000000
_AUX2=0.000000
_AUX3=0.000000
_TIMESTARTED=17308
_TEMP_RATE=0.000000
_TEMP_DELAY=0.000000
_KV=35
_MA=40
_RANGE_WL=1.788970
_3DPLANE=0
_2THETACOUNTS
   0.0000      5024
; (Data for Range number 201)
_DRIVE='PHI'
_STEPTIME=20
_STEPSIZE=5.000000
_STEPMODE='S'
_START=0.000000
_THETA=57.5
_2THETA=115
_KHI=65
_PHI=0.000000
_X=0.000000
_Y=0.000000
_Z=0.000000
_DIVERGENCE=3.000000
_ANTISCATTER=3.000000
_DETECTOR=1
; S.C.
_HV=687
_GAIN=80
_LLD=0.690000
_ULD=1.866000
_DETECTORSLIT='unkn'
_AUX1=0.000000
_AUX2=0.000000
_AUX3=0.000000
_TIMESTARTED=17333
_TEMP_RATE=0.000000
_TEMP_DELAY=0.000000
_KV=35
_MA=40
_RANGE_WL=1.788970
_3DPLANE=0
_2THETACOUNTS
   0.0000      5067
; (Data for Range number 202)
_DRIVE='PHI'
_STEPTIME=20
_STEPSIZE=5.000000
_STEPMODE='S'
_START=0.000000
_THETA=57.5
_2THETA=115
_KHI=70
_PHI=0.000000
_X=0.000000
_Y=0.000000
_Z=0.000000
_DIVERGENCE=3.000000
_ANTISCATTER=3.000000
_DETECTOR=1
; S.C.
_HV=687
_GAIN=80
_LLD=0.690000
_ULD=1.866000
_DETECTORSLIT='unkn'
_AUX1=0.000000
_AUX2=0.000000
_AUX3=0.000000
_TIMESTARTED=17358
_TEMP_RATE=0.000000
_TEMP_DELAY=0.000000
_KV=35
_MA=40
_RANGE_WL=1.788970
_3DPLANE=0
_2THETACOUNTS
   0.0000      4981
; (Data for Range number 203)
_DRIVE='PHI'
_STEPTIME=20
_STEPSIZE=5.000000
_STEPMODE='S'
_START=0.000000
_THETA=57.5
_2THETA=115
_KHI=75
_PHI=0.000000
_X=0.000000
_Y=0.000000
_Z=0.000000
_DIVERGENCE=3.000000
_ANTISCATTER=3.000000
_DETECTOR=1
; S.C.
_HV=687
_GAIN=80
_LLD=0.690000
_ULD=1.866000
_DETECTORSLIT='unkn'
_AUX1=0.000000
_AUX2=0.000000
_AUX3=0.000000
_TIMESTARTED=17382
_TEMP_RATE=0.000000
_TEMP_DELAY=0.000000
_KV=35
_MA=40
_RANGE_WL=1.788970
_3DPLANE=0
_2THETACOUNTS
   0.0000      5215
; (Data for Range number 204)
_DRIVE='PHI'
_STEPTIME=20
_STEPSIZE=5.000000
_STEPMODE='S'
_START=0.000000
_THETA=57.5
_2THETA=115
_KHI=80
_PHI=0.000000
_X=0.000000
_Y=0.000000
_Z=0.000000
_DIVERGENCE=3.000000
_ANTISCATTER=3.000000
_DETECTOR=1
; S.C.
_HV=687
_GAIN=80
_LLD=0.690000
_ULD=1.866000
_DETECTORSLIT='unkn'
_AUX1=0.000000
_AUX2=0.000000
_AUX3=0.000000
_TIMESTARTED=17407
_TEMP_RATE=0.000000
_TEMP_DELAY=0.000000
_KV=35
_MA=40
_RANGE_WL=1.788970
_3DPLANE=0
_2THETACOUNTS
   0.0000      4902