File: dat/uxd/fss-stand_dfc_new.UXD
; C:\DIFFDAT1\GIFT\MML\youngung\standard_Ferr_ss\fss___alignedagain_R.raw(Diffrac Plus V1.01 file) converted by XCH V1.0
_FILEVERSION=2
_SITE='Korea'
_USER='Admin'
_SAMPLE_CHANGER_CODE=0
_ATTACHMENTS_CODE=0
_GONIOMETER_RADIUS=300
_FIXED_DIVSLIT=1.000000
_FIXED_SAMPLESLIT=0.000000
_FIXED_DETSLIT=0.100000
_MONOCHROMATOR=0
; None
_THIN_FILM='N'
_BETA_FILTER='Y'
_FIXED_ANTISLIT=0.600000
_ANALYZER_CODE=0
; None
_DATEMEASURED='20-Jan-2011 06:03:08'
_WL_UNIT='A'
_WL1=1.788970
_WL2=1.792850
_WL3=1.620790
_WLRATIO=0.500000
_ANODE='Co'
; (Data for Range number 1)
_DRIVE='PHI'
_STEPTIME=2.000000
_STEPSIZE=5.000000
_STEPMODE='C'
_START=0.000000
_THETA=26.1155
_2THETA=52.231
_KHI=0.000000
_PHI=0.000000
_X=50
_Y=-25
_Z=0.000000
_DIVERGENCE=3.000000
_ANTISCATTER=3.000000
_DETECTOR=1
; S.C.
_HV=687
_GAIN=80
_LLD=0.690000
_ULD=1.866000
_DETECTORSLIT='unkn'
_AUX1=0.000000
_AUX2=0.000000
_AUX3=0.000000
_TIMESTARTED=25
_TEMP_RATE=0.000000
_TEMP_DELAY=0.000000
_KV=35
_MA=40
_RANGE_WL=1.788970
_3DPLANE=0
_2THETACOUNTS
   0.0000      2644
   5.0000      2631
  10.0000      2726
  15.0000      2740
  20.0000      2689
  25.0000      2752
  30.0000      2806
  35.0000      2791
  40.0000      2789
  45.0000      3056
  50.0000      3089
  55.0000      2734
  60.0000      2596
  65.0000      2569
  70.0000      2569
  75.0000      2708
  80.0000      2611
  85.0000      2529
  90.0000      2429
  95.0000      2298
 100.0000      2339
 105.0000      2463
 110.0000      2512
 115.0000      2349
 120.0000      2301
 125.0000      2182
 130.0000      2100
 135.0000      2204
 140.0000      2352
 145.0000      2429
 150.0000      2474
 155.0000      2523
 160.0000      2581
 165.0000      2569
 170.0000      2575
 175.0000      2502
 180.0000      2729
 185.0000      2716
 190.0000      2733
 195.0000      2886
 200.0000      2911
 205.0000      3108
 210.0000      3224
 215.0000      3182
 220.0000      2811
 225.0000      2593
 230.0000      2754
 235.0000      2453
 240.0000      2451
 245.0000      2473
 250.0000      2474
 255.0000      2391
 260.0000      2673
 265.0000      2630
 270.0000      2667
 275.0000      2760
 280.0000      3011
 285.0000      3003
 290.0000      3005
 295.0000      2752
 300.0000      2591
 305.0000      2346
 310.0000      2269
 315.0000      2354
 320.0000      2576
 325.0000      2754
 330.0000      2667
 335.0000      2620
 340.0000      2701
 345.0000      2846
 350.0000      2781
 355.0000      2582
; (Data for Range number 2)
_DRIVE='PHI'
_STEPTIME=2.000000
_STEPSIZE=5.000000
_STEPMODE='C'
_START=0.000000
_THETA=26.1155
_2THETA=52.231
_KHI=5.000000
_PHI=0.000000
_X=50
_Y=-25
_Z=0.000000
_DIVERGENCE=3.000000
_ANTISCATTER=3.000000
_DETECTOR=1
; S.C.
_HV=687
_GAIN=80
_LLD=0.690000
_ULD=1.866000
_DETECTORSLIT='unkn'
_AUX1=0.000000
_AUX2=0.000000
_AUX3=0.000000
_TIMESTARTED=230
_TEMP_RATE=0.000000
_TEMP_DELAY=0.000000
_KV=35
_MA=40
_RANGE_WL=1.788970
_3DPLANE=0
_2THETACOUNTS
   0.0000      2631
   5.0000      2360
  10.0000      2790
  15.0000      3055
  20.0000      2846
  25.0000      2666
  30.0000      2606
  35.0000      2542
  40.0000      2582
  45.0000      2479
  50.0000      2162
  55.0000      2637
  60.0000      2766
  65.0000      2900
  70.0000      2660
  75.0000      2834
  80.0000      2799
  85.0000      2617
  90.0000      2377
  95.0000      2804
 100.0000      2969
 105.0000      2916
 110.0000      2843
 115.0000      3008
 120.0000      2473
 125.0000      2326
 130.0000      2448
 135.0000      2225
 140.0000      2284
 145.0000      2498
 150.0000      2518
 155.0000      2394
 160.0000      2492
 165.0000      2696
 170.0000      2802
 175.0000      2750
 180.0000      2416
 185.0000      2934
 190.0000      3025
 195.0000      2735
 200.0000      2668
 205.0000      2701
 210.0000      2930
 215.0000      2706
 220.0000      2593
 225.0000      2702
 230.0000      2830
 235.0000      2644
 240.0000      2503
 245.0000      2503
 250.0000      2302
 255.0000      3026
 260.0000      3165
 265.0000      3034
 270.0000      2535
 275.0000      2470
 280.0000      2943
 285.0000      3179
 290.0000      3176
 295.0000      3173
 300.0000      3025
 305.0000      2821
 310.0000      3075
 315.0000      2497
 320.0000      2559
 325.0000      3022
 330.0000      2839
 335.0000      3010
 340.0000      2798
 345.0000      2484
 350.0000      2469
 355.0000      2927
; (Data for Range number 3)
_DRIVE='PHI'
_STEPTIME=2.000000
_STEPSIZE=5.000000
_STEPMODE='C'
_START=0.000000
_THETA=26.1155
_2THETA=52.231
_KHI=10
_PHI=0.000000
_X=50
_Y=-25
_Z=0.000000
_DIVERGENCE=3.000000
_ANTISCATTER=3.000000
_DETECTOR=1
; S.C.
_HV=687
_GAIN=80
_LLD=0.690000
_ULD=1.866000
_DETECTORSLIT='unkn'
_AUX1=0.000000
_AUX2=0.000000
_AUX3=0.000000
_TIMESTARTED=435
_TEMP_RATE=0.000000
_TEMP_DELAY=0.000000
_KV=35
_MA=40
_RANGE_WL=1.788970
_3DPLANE=0
_2THETACOUNTS
   0.0000      2424
   5.0000      2295
  10.0000      2283
  15.0000      2832
  20.0000      2755
  25.0000      2563
  30.0000      2628
  35.0000      2682
  40.0000      2456
  45.0000      2237
  50.0000      2375
  55.0000      2733
  60.0000      2921
  65.0000      3066
  70.0000      2819
  75.0000      2452
  80.0000      2783
  85.0000      2517
  90.0000      2595
  95.0000      2476
 100.0000      2531
 105.0000      2589
 110.0000      2573
 115.0000      3144
 120.0000      2704
 125.0000      2301
 130.0000      2560
 135.0000      2722
 140.0000      2606
 145.0000      2744
 150.0000      2840
 155.0000      2610
 160.0000      2746
 165.0000      2387
 170.0000      2457
 175.0000      2526
 180.0000      2707
 185.0000      2592
 190.0000      2581
 195.0000      2981
 200.0000      2863
 205.0000      2305
 210.0000      2290
 215.0000      2191
 220.0000      2639
 225.0000      2910
 230.0000      3466
 235.0000      3141
 240.0000      2721
 245.0000      2654
 250.0000      2571
 255.0000      2838
 260.0000      2871
 265.0000      2816
 270.0000      2957
 275.0000      2570
 280.0000      2784
 285.0000      2771
 290.0000      2905
 295.0000      2542
 300.0000      2743
 305.0000      2419
 310.0000      2485
 315.0000      3755
 320.0000      2787
 325.0000      2738
 330.0000      2769
 335.0000      2649
 340.0000      2525
 345.0000      2568
 350.0000      2427
 355.0000      2588
; (Data for Range number 4)
_DRIVE='PHI'
_STEPTIME=2.000000
_STEPSIZE=5.000000
_STEPMODE='C'
_START=0.000000
_THETA=26.1155
_2THETA=52.231
_KHI=15
_PHI=0.000000
_X=50
_Y=-25
_Z=0.000000
_DIVERGENCE=3.000000
_ANTISCATTER=3.000000
_DETECTOR=1
; S.C.
_HV=687
_GAIN=80
_LLD=0.690000
_ULD=1.866000
_DETECTORSLIT='unkn'
_AUX1=0.000000
_AUX2=0.000000
_AUX3=0.000000
_TIMESTARTED=640
_TEMP_RATE=0.000000
_TEMP_DELAY=0.000000
_KV=35
_MA=40
_RANGE_WL=1.788970
_3DPLANE=0
_2THETACOUNTS
   0.0000      2609
   5.0000      2731
  10.0000      2735
  15.0000      2760
  20.0000      2828
  25.0000      2851
  30.0000      2782
  35.0000      3079
  40.0000      2596
  45.0000      2300
  50.0000      2783
  55.0000      2741
  60.0000      2501
  65.0000      2744
  70.0000      2961
  75.0000      2743
  80.0000      2344
  85.0000      2511
  90.0000      2491
  95.0000      2506
 100.0000      2376
 105.0000      2619
 110.0000      2757
 115.0000      2966
 120.0000      2754
 125.0000      2475
 130.0000      2632
 135.0000      2799
 140.0000      2791
 145.0000      2895
 150.0000      2535
 155.0000      2519
 160.0000      2726
 165.0000      2815
 170.0000      2683
 175.0000      2920
 180.0000      2406
 185.0000      2534
 190.0000      2399
 195.0000      2692
 200.0000      2543
 205.0000      3142
 210.0000      2822
 215.0000      2559
 220.0000      2895
 225.0000      2916
 230.0000      2875
 235.0000      2670
 240.0000      3036
 245.0000      2804
 250.0000      2988
 255.0000      2851
 260.0000      2677
 265.0000      2819
 270.0000      2528
 275.0000      2780
 280.0000      2836
 285.0000      2673
 290.0000      2339
 295.0000      2528
 300.0000      2565
 305.0000      2649
 310.0000      2816
 315.0000      2704
 320.0000      3160
 325.0000      2792
 330.0000      2682
 335.0000      2367
 340.0000      2615
 345.0000      2635
 350.0000      2493
 355.0000      2887
; (Data for Range number 5)
_DRIVE='PHI'
_STEPTIME=2.000000
_STEPSIZE=5.000000
_STEPMODE='C'
_START=0.000000
_THETA=26.1155
_2THETA=52.231
_KHI=20
_PHI=0.000000
_X=50
_Y=-25
_Z=0.000000
_DIVERGENCE=3.000000
_ANTISCATTER=3.000000
_DETECTOR=1
; S.C.
_HV=687
_GAIN=80
_LLD=0.690000
_ULD=1.866000
_DETECTORSLIT='unkn'
_AUX1=0.000000
_AUX2=0.000000
_AUX3=0.000000
_TIMESTARTED=845
_TEMP_RATE=0.000000
_TEMP_DELAY=0.000000
_KV=35
_MA=40
_RANGE_WL=1.788970
_3DPLANE=0
_2THETACOUNTS
   0.0000      2632
   5.0000      2855
  10.0000      2574
  15.0000      2521
  20.0000      2652
  25.0000      2643
  30.0000      2528
  35.0000      2553
  40.0000      2681
  45.0000      2506
  50.0000      2618
  55.0000      2929
  60.0000      2541
  65.0000      2912
  70.0000      2685
  75.0000      2552
  80.0000      2796
  85.0000      2641
  90.0000      2729
  95.0000      2953
 100.0000      2801
 105.0000      2745
 110.0000      2576
 115.0000      2510
 120.0000      2585
 125.0000      2496
 130.0000      2697
 135.0000      2688
 140.0000      2441
 145.0000      2645
 150.0000      2819
 155.0000      3092
 160.0000      2774
 165.0000      2866
 170.0000      2745
 175.0000      2709
 180.0000      2612
 185.0000      2741
 190.0000      2648
 195.0000      2711
 200.0000      2958
 205.0000      2825
 210.0000      2781
 215.0000      2688
 220.0000      2609
 225.0000      2614
 230.0000      2751
 235.0000      2534
 240.0000      2533
 245.0000      2780
 250.0000      2883
 255.0000      2748
 260.0000      2670
 265.0000      2773
 270.0000      2750
 275.0000      2765
 280.0000      3068
 285.0000      2881
 290.0000      3027
 295.0000      2887
 300.0000      2882
 305.0000      3001
 310.0000      2459
 315.0000      2824
 320.0000      2633
 325.0000      2531
 330.0000      2557
 335.0000      2410
 340.0000      2543
 345.0000      2473
 350.0000      2456
 355.0000      2317
; (Data for Range number 6)
_DRIVE='PHI'
_STEPTIME=2.000000
_STEPSIZE=5.000000
_STEPMODE='C'
_START=0.000000
_THETA=26.1155
_2THETA=52.231
_KHI=25
_PHI=0.000000
_X=50
_Y=-25
_Z=0.000000
_DIVERGENCE=3.000000
_ANTISCATTER=3.000000
_DETECTOR=1
; S.C.
_HV=687
_GAIN=80
_LLD=0.690000
_ULD=1.866000
_DETECTORSLIT='unkn'
_AUX1=0.000000
_AUX2=0.000000
_AUX3=0.000000
_TIMESTARTED=1050
_TEMP_RATE=0.000000
_TEMP_DELAY=0.000000
_KV=35
_MA=40
_RANGE_WL=1.788970
_3DPLANE=0
_2THETACOUNTS
   0.0000      2391
   5.0000      2551
  10.0000      2638
  15.0000      2552
  20.0000      2741
  25.0000      2933
  30.0000      2751
  35.0000      2731
  40.0000      2990
  45.0000      2510
  50.0000      2537
  55.0000      2728
  60.0000      2756
  65.0000      2894
  70.0000      2646
  75.0000      2585
  80.0000      3054
  85.0000      2952
  90.0000      2740
  95.0000      2957
 100.0000      2673
 105.0000      2592
 110.0000      2753
 115.0000      2679
 120.0000      2585
 125.0000      2591
 130.0000      2688
 135.0000      2604
 140.0000      2544
 145.0000      2784
 150.0000      2504
 155.0000      2783
 160.0000      2808
 165.0000      2635
 170.0000      2566
 175.0000      2577
 180.0000      2748
 185.0000      2670
 190.0000      2840
 195.0000      2746
 200.0000      2932
 205.0000      2509
 210.0000      2567
 215.0000      2895
 220.0000      2727
 225.0000      2626
 230.0000      2628
 235.0000      2725
 240.0000      2744
 245.0000      2632
 250.0000      2802
 255.0000      2586
 260.0000      2800
 265.0000      2784
 270.0000      2918
 275.0000      2663
 280.0000      2995
 285.0000      2954
 290.0000      2367
 295.0000      2673
 300.0000      2488
 305.0000      2707
 310.0000      2422
 315.0000      2671
 320.0000      2557
 325.0000      2385
 330.0000      2744
 335.0000      2629
 340.0000      2656
 345.0000      2961
 350.0000      2575
 355.0000      2533
; (Data for Range number 7)
_DRIVE='PHI'
_STEPTIME=2.000000
_STEPSIZE=5.000000
_STEPMODE='C'
_START=0.000000
_THETA=26.1155
_2THETA=52.231
_KHI=30
_PHI=0.000000
_X=50
_Y=-25
_Z=0.000000
_DIVERGENCE=3.000000
_ANTISCATTER=3.000000
_DETECTOR=1
; S.C.
_HV=687
_GAIN=80
_LLD=0.690000
_ULD=1.866000
_DETECTORSLIT='unkn'
_AUX1=0.000000
_AUX2=0.000000
_AUX3=0.000000
_TIMESTARTED=1255
_TEMP_RATE=0.000000
_TEMP_DELAY=0.000000
_KV=35
_MA=40
_RANGE_WL=1.788970
_3DPLANE=0
_2THETACOUNTS
   0.0000      2452
   5.0000      2490
  10.0000      2597
  15.0000      2738
  20.0000      2543
  25.0000      2599
  30.0000      2485
  35.0000      2479
  40.0000      2528
  45.0000      2619
  50.0000      2547
  55.0000      2711
  60.0000      2752
  65.0000      2585
  70.0000      2468
  75.0000      2685
  80.0000      2391
  85.0000      2418
  90.0000      2741
  95.0000      2809
 100.0000      2698
 105.0000      2527
 110.0000      2624
 115.0000      2660
 120.0000      2735
 125.0000      2962
 130.0000      2576
 135.0000      2947
 140.0000      2791
 145.0000      2739
 150.0000      2830
 155.0000      2945
 160.0000      2739
 165.0000      2520
 170.0000      2654
 175.0000      2488
 180.0000      2850
 185.0000      2655
 190.0000      2690
 195.0000      2738
 200.0000      2630
 205.0000      2866
 210.0000      2572
 215.0000      2766
 220.0000      2682
 225.0000      2630
 230.0000      2593
 235.0000      2884
 240.0000      2746
 245.0000      2523
 250.0000      2614
 255.0000      2648
 260.0000      2696
 265.0000      2818
 270.0000      2893
 275.0000      2740
 280.0000      2747
 285.0000      2876
 290.0000      2889
 295.0000      2736
 300.0000      2911
 305.0000      2595
 310.0000      2629
 315.0000      2754
 320.0000      2815
 325.0000      2767
 330.0000      2454
 335.0000      2655
 340.0000      2676
 345.0000      2521
 350.0000      2419
 355.0000      2664
; (Data for Range number 8)
_DRIVE='PHI'
_STEPTIME=2.000000
_STEPSIZE=5.000000
_STEPMODE='C'
_START=0.000000
_THETA=26.1155
_2THETA=52.231
_KHI=35
_PHI=0.000000
_X=50
_Y=-25
_Z=0.000000
_DIVERGENCE=3.000000
_ANTISCATTER=3.000000
_DETECTOR=1
; S.C.
_HV=687
_GAIN=80
_LLD=0.690000
_ULD=1.866000
_DETECTORSLIT='unkn'
_AUX1=0.000000
_AUX2=0.000000
_AUX3=0.000000
_TIMESTARTED=1460
_TEMP_RATE=0.000000
_TEMP_DELAY=0.000000
_KV=35
_MA=40
_RANGE_WL=1.788970
_3DPLANE=0
_2THETACOUNTS
   0.0000      2625
   5.0000      2441
  10.0000      2859
  15.0000      2748
  20.0000      2645
  25.0000      2831
  30.0000      2778
  35.0000      2830
  40.0000      2608
  45.0000      2746
  50.0000      2753
  55.0000      2728
  60.0000      2574
  65.0000      2520
  70.0000      2531
  75.0000      2738
  80.0000      2753
  85.0000      2750
  90.0000      2799
  95.0000      2771
 100.0000      2541
 105.0000      2519
 110.0000      2607
 115.0000      2553
 120.0000      2709
 125.0000      2548
 130.0000      2719
 135.0000      2658
 140.0000      2765
 145.0000      2701
 150.0000      2780
 155.0000      2917
 160.0000      2629
 165.0000      2717
 170.0000      2795
 175.0000      2806
 180.0000      2594
 185.0000      2625
 190.0000      2869
 195.0000      2568
 200.0000      2962
 205.0000      2751
 210.0000      2862
 215.0000      3094
 220.0000      2906
 225.0000      2500
 230.0000      2649
 235.0000      2685
 240.0000      2828
 245.0000      2392
 250.0000      2743
 255.0000      2986
 260.0000      2892
 265.0000      2885
 270.0000      2726
 275.0000      2931
 280.0000      2670
 285.0000      2672
 290.0000      2828
 295.0000      2659
 300.0000      2989
 305.0000      2598
 310.0000      2716
 315.0000      2683
 320.0000      2728
 325.0000      2555
 330.0000      2902
 335.0000      2627
 340.0000      2665
 345.0000      2586
 350.0000      2587
 355.0000      2518
; (Data for Range number 9)
_DRIVE='PHI'
_STEPTIME=2.000000
_STEPSIZE=5.000000
_STEPMODE='C'
_START=0.000000
_THETA=26.1155
_2THETA=52.231
_KHI=40
_PHI=0.000000
_X=50
_Y=-25
_Z=0.000000
_DIVERGENCE=3.000000
_ANTISCATTER=3.000000
_DETECTOR=1
; S.C.
_HV=687
_GAIN=80
_LLD=0.690000
_ULD=1.866000
_DETECTORSLIT='unkn'
_AUX1=0.000000
_AUX2=0.000000
_AUX3=0.000000
_TIMESTARTED=1665
_TEMP_RATE=0.000000
_TEMP_DELAY=0.000000
_KV=35
_MA=40
_RANGE_WL=1.788970
_3DPLANE=0
_2THETACOUNTS
   0.0000      2700
   5.0000      2686
  10.0000      2599
  15.0000      2391
  20.0000      2665
  25.0000      2659
  30.0000      2713
  35.0000      2525
  40.0000      2682
  45.0000      2855
  50.0000      2867
  55.0000      2514
  60.0000      2850
  65.0000      2314
  70.0000      2663
  75.0000      2621
  80.0000      2701
  85.0000      2849
  90.0000      2905
  95.0000      2759
 100.0000      2624
 105.0000      2496
 110.0000      2463
 115.0000      2474
 120.0000      2612
 125.0000      2697
 130.0000      2842
 135.0000      2543
 140.0000      2804
 145.0000      2830
 150.0000      2705
 155.0000      2704
 160.0000      2523
 165.0000      2525
 170.0000      2668
 175.0000      2711
 180.0000      2582
 185.0000      2780
 190.0000      2680
 195.0000      2611
 200.0000      2698
 205.0000      2826
 210.0000      2586
 215.0000      2686
 220.0000      2713
 225.0000      2883
 230.0000      2565
 235.0000      2598
 240.0000      2861
 245.0000      2562
 250.0000      2748
 255.0000      2961
 260.0000      2542
 265.0000      2750
 270.0000      2642
 275.0000      2531
 280.0000      2577
 285.0000      2804
 290.0000      2741
 295.0000      2458
 300.0000      2510
 305.0000      2663
 310.0000      2646
 315.0000      2794
 320.0000      2682
 325.0000      2784
 330.0000      2497
 335.0000      2563
 340.0000      2525
 345.0000      2382
 350.0000      2453
 355.0000      2694
; (Data for Range number 10)
_DRIVE='PHI'
_STEPTIME=2.000000
_STEPSIZE=5.000000
_STEPMODE='C'
_START=0.000000
_THETA=26.1155
_2THETA=52.231
_KHI=45
_PHI=0.000000
_X=50
_Y=-25
_Z=0.000000
_DIVERGENCE=3.000000
_ANTISCATTER=3.000000
_DETECTOR=1
; S.C.
_HV=687
_GAIN=80
_LLD=0.690000
_ULD=1.866000
_DETECTORSLIT='unkn'
_AUX1=0.000000
_AUX2=0.000000
_AUX3=0.000000
_TIMESTARTED=1870
_TEMP_RATE=0.000000
_TEMP_DELAY=0.000000
_KV=35
_MA=40
_RANGE_WL=1.788970
_3DPLANE=0
_2THETACOUNTS
   0.0000      2709
   5.0000      2503
  10.0000      2616
  15.0000      2544
  20.0000      2715
  25.0000      2844
  30.0000      2377
  35.0000      2578
  40.0000      2570
  45.0000      2524
  50.0000      2560
  55.0000      2715
  60.0000      2532
  65.0000      2649
  70.0000      2519
  75.0000      2654
  80.0000      2657
  85.0000      2687
  90.0000      2756
  95.0000      2581
 100.0000      2365
 105.0000      2462
 110.0000      2494
 115.0000      2450
 120.0000      2609
 125.0000      2594
 130.0000      2603
 135.0000      2558
 140.0000      2589
 145.0000      2701
 150.0000      2580
 155.0000      2567
 160.0000      2752
 165.0000      2499
 170.0000      2550
 175.0000      2625
 180.0000      2544
 185.0000      2688
 190.0000      2643
 195.0000      2594
 200.0000      2933
 205.0000      2610
 210.0000      2740
 215.0000      2480
 220.0000      2576
 225.0000      2686
 230.0000      2627
 235.0000      2389
 240.0000      2724
 245.0000      2691
 250.0000      2670
 255.0000      2523
 260.0000      2687
 265.0000      2788
 270.0000      2746
 275.0000      2641
 280.0000      2813
 285.0000      2424
 290.0000      2656
 295.0000      2747
 300.0000      2662
 305.0000      2527
 310.0000      2922
 315.0000      2523
 320.0000      2649
 325.0000      2744
 330.0000      2778
 335.0000      2591
 340.0000      2708
 345.0000      2549
 350.0000      2436
 355.0000      2441
; (Data for Range number 11)
_DRIVE='PHI'
_STEPTIME=2.000000
_STEPSIZE=5.000000
_STEPMODE='C'
_START=0.000000
_THETA=26.1155
_2THETA=52.231
_KHI=50
_PHI=0.000000
_X=50
_Y=-25
_Z=0.000000
_DIVERGENCE=3.000000
_ANTISCATTER=3.000000
_DETECTOR=1
; S.C.
_HV=687
_GAIN=80
_LLD=0.690000
_ULD=1.866000
_DETECTORSLIT='unkn'
_AUX1=0.000000
_AUX2=0.000000
_AUX3=0.000000
_TIMESTARTED=2075
_TEMP_RATE=0.000000
_TEMP_DELAY=0.000000
_KV=35
_MA=40
_RANGE_WL=1.788970
_3DPLANE=0
_2THETACOUNTS
   0.0000      2732
   5.0000      2335
  10.0000      2408
  15.0000      2299
  20.0000      2740
  25.0000      2696
  30.0000      2499
  35.0000      2291
  40.0000      2367
  45.0000      2770
  50.0000      2394
  55.0000      2470
  60.0000      2418
  65.0000      2348
  70.0000      2485
  75.0000      2562
  80.0000      2596
  85.0000      2466
  90.0000      2586
  95.0000      2701
 100.0000      2627
 105.0000      2665
 110.0000      2566
 115.0000      2448
 120.0000      2716
 125.0000      2593
 130.0000      2697
 135.0000      2580
 140.0000      2552
 145.0000      2517
 150.0000      2664
 155.0000      2731
 160.0000      2590
 165.0000      2548
 170.0000      2573
 175.0000      2641
 180.0000      2691
 185.0000      2554
 190.0000      2684
 195.0000      2751
 200.0000      2819
 205.0000      2589
 210.0000      2247
 215.0000      2829
 220.0000      2608
 225.0000      2494
 230.0000      2735
 235.0000      2636
 240.0000      2727
 245.0000      2563
 250.0000      2544
 255.0000      2591
 260.0000      2707
 265.0000      2601
 270.0000      2514
 275.0000      2625
 280.0000      2689
 285.0000      2669
 290.0000      2454
 295.0000      2584
 300.0000      2646
 305.0000      2677
 310.0000      2668
 315.0000      2567
 320.0000      2581
 325.0000      2690
 330.0000      2529
 335.0000      2483
 340.0000      2656
 345.0000      2423
 350.0000      2491
 355.0000      2726
; (Data for Range number 12)
_DRIVE='PHI'
_STEPTIME=2.000000
_STEPSIZE=5.000000
_STEPMODE='C'
_START=0.000000
_THETA=26.1155
_2THETA=52.231
_KHI=55
_PHI=0.000000
_X=50
_Y=-25
_Z=0.000000
_DIVERGENCE=3.000000
_ANTISCATTER=3.000000
_DETECTOR=1
; S.C.
_HV=687
_GAIN=80
_LLD=0.690000
_ULD=1.866000
_DETECTORSLIT='unkn'
_AUX1=0.000000
_AUX2=0.000000
_AUX3=0.000000
_TIMESTARTED=2280
_TEMP_RATE=0.000000
_TEMP_DELAY=0.000000
_KV=35
_MA=40
_RANGE_WL=1.788970
_3DPLANE=0
_2THETACOUNTS
   0.0000      2595
   5.0000      2457
  10.0000      2394
  15.0000      2390
  20.0000      2555
  25.0000      2621
  30.0000      2502
  35.0000      2712
  40.0000      2339
  45.0000      2442
  50.0000      2470
  55.0000      2525
  60.0000      2403
  65.0000      2372
  70.0000      2544
  75.0000      2372
  80.0000      2264
  85.0000      2357
  90.0000      2329
  95.0000      2521
 100.0000      2542
 105.0000      2298
 110.0000      2311
 115.0000      2424
 120.0000      2376
 125.0000      2607
 130.0000      2221
 135.0000      2530
 140.0000      2269
 145.0000      2552
 150.0000      2378
 155.0000      2502
 160.0000      2460
 165.0000      2349
 170.0000      2718
 175.0000      2519
 180.0000      2660
 185.0000      2484
 190.0000      2616
 195.0000      2432
 200.0000      2369
 205.0000      2498
 210.0000      2526
 215.0000      2536
 220.0000      2507
 225.0000      2596
 230.0000      2435
 235.0000      2620
 240.0000      2417
 245.0000      2419
 250.0000      2370
 255.0000      2304
 260.0000      2441
 265.0000      2431
 270.0000      2489
 275.0000      2620
 280.0000      2422
 285.0000      2290
 290.0000      2722
 295.0000      2587
 300.0000      2456
 305.0000      2545
 310.0000      2406
 315.0000      2428
 320.0000      2456
 325.0000      2330
 330.0000      2422
 335.0000      2443
 340.0000      2408
 345.0000      2459
 350.0000      2385
 355.0000      2689
; (Data for Range number 13)
_DRIVE='PHI'
_STEPTIME=2.000000
_STEPSIZE=5.000000
_STEPMODE='C'
_START=0.000000
_THETA=26.1155
_2THETA=52.231
_KHI=60
_PHI=0.000000
_X=50
_Y=-25
_Z=0.000000
_DIVERGENCE=3.000000
_ANTISCATTER=3.000000
_DETECTOR=1
; S.C.
_HV=687
_GAIN=80
_LLD=0.690000
_ULD=1.866000
_DETECTORSLIT='unkn'
_AUX1=0.000000
_AUX2=0.000000
_AUX3=0.000000
_TIMESTARTED=2485
_TEMP_RATE=0.000000
_TEMP_DELAY=0.000000
_KV=35
_MA=40
_RANGE_WL=1.788970
_3DPLANE=0
_2THETACOUNTS
   0.0000      2253
   5.0000      2341
  10.0000      2439
  15.0000      2299
  20.0000      2450
  25.0000      2090
  30.0000      2430
  35.0000      2192
  40.0000      2279
  45.0000      2185
  50.0000      2021
  55.0000      2476
  60.0000      2324
  65.0000      2250
  70.0000      2130
  75.0000      2238
  80.0000      2296
  85.0000      2393
  90.0000      2077
  95.0000      2191
 100.0000      2496
 105.0000      2261
 110.0000      2272
 115.0000      2257
 120.0000      2090
 125.0000      2170
 130.0000      2076
 135.0000      2318
 140.0000      2401
 145.0000      2164
 150.0000      2195
 155.0000      2596
 160.0000      2251
 165.0000      2340
 170.0000      2174
 175.0000      2317
 180.0000      2400
 185.0000      2248
 190.0000      2509
 195.0000      2553
 200.0000      2318
 205.0000      2410
 210.0000      2178
 215.0000      2459
 220.0000      2619
 225.0000      2129
 230.0000      2365
 235.0000      2357
 240.0000      2296
 245.0000      2216
 250.0000      2368
 255.0000      2434
 260.0000      2350
 265.0000      2293
 270.0000      2169
 275.0000      2317
 280.0000      2470
 285.0000      2433
 290.0000      2610
 295.0000      2409
 300.0000      2322
 305.0000      2161
 310.0000      2259
 315.0000      2282
 320.0000      2212
 325.0000      2228
 330.0000      2305
 335.0000      2323
 340.0000      2221
 345.0000      2306
 350.0000      2175
 355.0000      2430
; (Data for Range number 14)
_DRIVE='PHI'
_STEPTIME=2.000000
_STEPSIZE=5.000000
_STEPMODE='C'
_START=0.000000
_THETA=26.1155
_2THETA=52.231
_KHI=65
_PHI=0.000000
_X=50
_Y=-25
_Z=0.000000
_DIVERGENCE=3.000000
_ANTISCATTER=3.000000
_DETECTOR=1
; S.C.
_HV=687
_GAIN=80
_LLD=0.690000
_ULD=1.866000
_DETECTORSLIT='unkn'
_AUX1=0.000000
_AUX2=0.000000
_AUX3=0.000000
_TIMESTARTED=2690
_TEMP_RATE=0.000000
_TEMP_DELAY=0.000000
_KV=35
_MA=40
_RANGE_WL=1.788970
_3DPLANE=0
_2THETACOUNTS
   0.0000      2047
   5.0000      2140
  10.0000      2132
  15.0000      2249
  20.0000      1923
  25.0000      1853
  30.0000      2122
  35.0000      2037
  40.0000      1860
  45.0000      2142
  50.0000      2186
  55.0000      1997
  60.0000      2175
  65.0000      1837
  70.0000      2009
  75.0000      1942
  80.0000      2028
  85.0000      1980
  90.0000      2199
  95.0000      1961
 100.0000      2373
 105.0000      2032
 110.0000      2055
 115.0000      2069
 120.0000      2156
 125.0000      2046
 130.0000      2011
 135.0000      1935
 140.0000      1960
 145.0000      2034
 150.0000      2118
 155.0000      2119
 160.0000      2087
 165.0000      2059
 170.0000      2156
 175.0000      1974
 180.0000      2186
 185.0000      2074
 190.0000      2018
 195.0000      2163
 200.0000      2166
 205.0000      2194
 210.0000      2181
 215.0000      2149
 220.0000      1995
 225.0000      2117
 230.0000      2165
 235.0000      1999
 240.0000      2041
 245.0000      2059
 250.0000      2002
 255.0000      2038
 260.0000      2056
 265.0000      1971
 270.0000      2117
 275.0000      2135
 280.0000      2037
 285.0000      2089
 290.0000      2108
 295.0000      1972
 300.0000      1943
 305.0000      2272
 310.0000      1997
 315.0000      2085
 320.0000      2172
 325.0000      1960
 330.0000      2079
 335.0000      1931
 340.0000      2049
 345.0000      2056
 350.0000      1953
 355.0000      2054
; (Data for Range number 15)
_DRIVE='PHI'
_STEPTIME=2.000000
_STEPSIZE=5.000000
_STEPMODE='C'
_START=0.000000
_THETA=26.1155
_2THETA=52.231
_KHI=70
_PHI=0.000000
_X=50
_Y=-25
_Z=0.000000
_DIVERGENCE=3.000000
_ANTISCATTER=3.000000
_DETECTOR=1
; S.C.
_HV=687
_GAIN=80
_LLD=0.690000
_ULD=1.866000
_DETECTORSLIT='unkn'
_AUX1=0.000000
_AUX2=0.000000
_AUX3=0.000000
_TIMESTARTED=2895
_TEMP_RATE=0.000000
_TEMP_DELAY=0.000000
_KV=35
_MA=40
_RANGE_WL=1.788970
_3DPLANE=0
_2THETACOUNTS
   0.0000      1677
   5.0000      1841
  10.0000      1825
  15.0000      2014
  20.0000      1815
  25.0000      1848
  30.0000      1557
  35.0000      1619
  40.0000      1662
  45.0000      1749
  50.0000      1730
  55.0000      1642
  60.0000      1651
  65.0000      1724
  70.0000      1756
  75.0000      1800
  80.0000      1771
  85.0000      1785
  90.0000      1894
  95.0000      1843
 100.0000      1685
 105.0000      1739
 110.0000      1758
 115.0000      1875
 120.0000      1935
 125.0000      2041
 130.0000      1862
 135.0000      1713
 140.0000      1873
 145.0000      1793
 150.0000      1727
 155.0000      1792
 160.0000      1721
 165.0000      1807
 170.0000      1798
 175.0000      1751
 180.0000      1689
 185.0000      1743
 190.0000      1703
 195.0000      1815
 200.0000      1853
 205.0000      1945
 210.0000      1857
 215.0000      1766
 220.0000      1763
 225.0000      1888
 230.0000      1800
 235.0000      1759
 240.0000      1833
 245.0000      1834
 250.0000      1852
 255.0000      1825
 260.0000      1876
 265.0000      1802
 270.0000      1808
 275.0000      1693
 280.0000      1707
 285.0000      1698
 290.0000      1710
 295.0000      1908
 300.0000      1772
 305.0000      1585
 310.0000      1764
 315.0000      1863
 320.0000      1791
 325.0000      1843
 330.0000      2033
 335.0000      1885
 340.0000      1803
 345.0000      1682
 350.0000      1802
 355.0000      1720
; (Data for Range number 16)
_DRIVE='PHI'
_STEPTIME=2.000000
_STEPSIZE=5.000000
_STEPMODE='C'
_START=0.000000
_THETA=26.1155
_2THETA=52.231
_KHI=75
_PHI=0.000000
_X=50
_Y=-25
_Z=0.000000
_DIVERGENCE=3.000000
_ANTISCATTER=3.000000
_DETECTOR=1
; S.C.
_HV=687
_GAIN=80
_LLD=0.690000
_ULD=1.866000
_DETECTORSLIT='unkn'
_AUX1=0.000000
_AUX2=0.000000
_AUX3=0.000000
_TIMESTARTED=3099
_TEMP_RATE=0.000000
_TEMP_DELAY=0.000000
_KV=35
_MA=40
_RANGE_WL=1.788970
_3DPLANE=0
_2THETACOUNTS
   0.0000      1413
   5.0000      1468
  10.0000      1446
  15.0000      1626
  20.0000      1451
  25.0000      1520
  30.0000      1413
  35.0000      1364
  40.0000      1458
  45.0000      1514
  50.0000      1521
  55.0000      1361
  60.0000      1352
  65.0000      1388
  70.0000      1413
  75.0000      1547
  80.0000      1425
  85.0000      1414
  90.0000      1509
  95.0000      1297
 100.0000      1422
 105.0000      1402
 110.0000      1490
 115.0000      1435
 120.0000      1447
 125.0000      1398
 130.0000      1519
 135.0000      1423
 140.0000      1456
 145.0000      1445
 150.0000      1398
 155.0000      1469
 160.0000      1355
 165.0000      1378
 170.0000      1521
 175.0000      1497
 180.0000      1423
 185.0000      1450
 190.0000      1475
 195.0000      1445
 200.0000      1514
 205.0000      1480
 210.0000      1448
 215.0000      1442
 220.0000      1461
 225.0000      1479
 230.0000      1521
 235.0000      1413
 240.0000      1446
 245.0000      1604
 250.0000      1443
 255.0000      1618
 260.0000      1382
 265.0000      1448
 270.0000      1416
 275.0000      1422
 280.0000      1448
 285.0000      1443
 290.0000      1486
 295.0000      1498
 300.0000      1421
 305.0000      1559
 310.0000      1500
 315.0000      1384
 320.0000      1484
 325.0000      1549
 330.0000      1466
 335.0000      1600
 340.0000      1486
 345.0000      1489
 350.0000      1637
 355.0000      1354
; (Data for Range number 17)
_DRIVE='PHI'
_STEPTIME=2.000000
_STEPSIZE=5.000000
_STEPMODE='C'
_START=0.000000
_THETA=26.1155
_2THETA=52.231
_KHI=80
_PHI=0.000000
_X=50
_Y=-25
_Z=0.000000
_DIVERGENCE=3.000000
_ANTISCATTER=3.000000
_DETECTOR=1
; S.C.
_HV=687
_GAIN=80
_LLD=0.690000
_ULD=1.866000
_DETECTORSLIT='unkn'
_AUX1=0.000000
_AUX2=0.000000
_AUX3=0.000000
_TIMESTARTED=3305
_TEMP_RATE=0.000000
_TEMP_DELAY=0.000000
_KV=35
_MA=40
_RANGE_WL=1.788970
_3DPLANE=0
_2THETACOUNTS
   0.0000      1089
   5.0000      1086
  10.0000      1168
  15.0000      1109
  20.0000      1037
  25.0000      1062
  30.0000      1071
  35.0000       955
  40.0000      1004
  45.0000       985
  50.0000       954
  55.0000      1022
  60.0000      1042
  65.0000      1128
  70.0000       997
  75.0000       993
  80.0000       999
  85.0000      1044
  90.0000      1108
  95.0000       997
 100.0000      1102
 105.0000       889
 110.0000       983
 115.0000      1120
 120.0000       969
 125.0000      1041
 130.0000      1051
 135.0000      1055
 140.0000      1018
 145.0000      1000
 150.0000       978
 155.0000      1144
 160.0000       996
 165.0000      1034
 170.0000      1029
 175.0000       978
 180.0000       967
 185.0000       986
 190.0000      1058
 195.0000       991
 200.0000      1130
 205.0000      1016
 210.0000      1089
 215.0000      1081
 220.0000       939
 225.0000      1093
 230.0000      1014
 235.0000      1004
 240.0000      1027
 245.0000      1158
 250.0000      1217
 255.0000      1110
 260.0000      1088
 265.0000      1128
 270.0000       994
 275.0000      1156
 280.0000      1059
 285.0000      1053
 290.0000      1103
 295.0000      1050
 300.0000      1148
 305.0000      1058
 310.0000      1097
 315.0000      1044
 320.0000      1069
 325.0000      1137
 330.0000      1139
 335.0000      1158
 340.0000       970
 345.0000      1036
 350.0000      1030
 355.0000      1057
; (Data for Range number 18)
_DRIVE='PHI'
_STEPTIME=20
_STEPSIZE=5.000000
_STEPMODE='S'
_START=0.000000
_THETA=23.5
_2THETA=47
_KHI=0.000000
_PHI=0.000000
_X=50
_Y=-25
_Z=0.000000
_DIVERGENCE=3.000000
_ANTISCATTER=3.000000
_DETECTOR=1
; S.C.
_HV=687
_GAIN=80
_LLD=0.690000
_ULD=1.866000
_DETECTORSLIT='unkn'
_AUX1=0.000000
_AUX2=0.000000
_AUX3=0.000000
_TIMESTARTED=3507
_TEMP_RATE=0.000000
_TEMP_DELAY=0.000000
_KV=35
_MA=40
_RANGE_WL=1.788970
_3DPLANE=0
_2THETACOUNTS
   0.0000      5746
; (Data for Range number 19)
_DRIVE='PHI'
_STEPTIME=20
_STEPSIZE=5.000000
_STEPMODE='S'
_START=0.000000
_THETA=23.5
_2THETA=47
_KHI=5.000000
_PHI=0.000000
_X=50
_Y=-25
_Z=0.000000
_DIVERGENCE=3.000000
_ANTISCATTER=3.000000
_DETECTOR=1
; S.C.
_HV=687
_GAIN=80
_LLD=0.690000
_ULD=1.866000
_DETECTORSLIT='unkn'
_AUX1=0.000000
_AUX2=0.000000
_AUX3=0.000000
_TIMESTARTED=3532
_TEMP_RATE=0.000000
_TEMP_DELAY=0.000000
_KV=35
_MA=40
_RANGE_WL=1.788970
_3DPLANE=0
_2THETACOUNTS
   0.0000      5636
; (Data for Range number 20)
_DRIVE='PHI'
_STEPTIME=20
_STEPSIZE=5.000000
_STEPMODE='S'
_START=0.000000
_THETA=23.5
_2THETA=47
_KHI=10
_PHI=0.000000
_X=50
_Y=-25
_Z=0.000000
_DIVERGENCE=3.000000
_ANTISCATTER=3.000000
_DETECTOR=1
; S.C.
_HV=687
_GAIN=80
_LLD=0.690000
_ULD=1.866000
_DETECTORSLIT='unkn'
_AUX1=0.000000
_AUX2=0.000000
_AUX3=0.000000
_TIMESTARTED=3556
_TEMP_RATE=0.000000
_TEMP_DELAY=0.000000
_KV=35
_MA=40
_RANGE_WL=1.788970
_3DPLANE=0
_2THETACOUNTS
   0.0000      5673
; (Data for Range number 21)
_DRIVE='PHI'
_STEPTIME=20
_STEPSIZE=5.000000
_STEPMODE='S'
_START=0.000000
_THETA=23.5
_2THETA=47
_KHI=15
_PHI=0.000000
_X=50
_Y=-25
_Z=0.000000
_DIVERGENCE=3.000000
_ANTISCATTER=3.000000
_DETECTOR=1
; S.C.
_HV=687
_GAIN=80
_LLD=0.690000
_ULD=1.866000
_DETECTORSLIT='unkn'
_AUX1=0.000000
_AUX2=0.000000
_AUX3=0.000000
_TIMESTARTED=3581
_TEMP_RATE=0.000000
_TEMP_DELAY=0.000000
_KV=35
_MA=40
_RANGE_WL=1.788970
_3DPLANE=0
_2THETACOUNTS
   0.0000      5539
; (Data for Range number 22)
_DRIVE='PHI'
_STEPTIME=20
_STEPSIZE=5.000000
_STEPMODE='S'
_START=0.000000
_THETA=23.5
_2THETA=47
_KHI=20
_PHI=0.000000
_X=50
_Y=-25
_Z=0.000000
_DIVERGENCE=3.000000
_ANTISCATTER=3.000000
_DETECTOR=1
; S.C.
_HV=687
_GAIN=80
_LLD=0.690000
_ULD=1.866000
_DETECTORSLIT='unkn'
_AUX1=0.000000
_AUX2=0.000000
_AUX3=0.000000
_TIMESTARTED=3605
_TEMP_RATE=0.000000
_TEMP_DELAY=0.000000
_KV=35
_MA=40
_RANGE_WL=1.788970
_3DPLANE=0
_2THETACOUNTS
   0.0000      5713
; (Data for Range number 23)
_DRIVE='PHI'
_STEPTIME=20
_STEPSIZE=5.000000
_STEPMODE='S'
_START=0.000000
_THETA=23.5
_2THETA=47
_KHI=25
_PHI=0.000000
_X=50
_Y=-25
_Z=0.000000
_DIVERGENCE=3.000000
_ANTISCATTER=3.000000
_DETECTOR=1
; S.C.
_HV=687
_GAIN=80
_LLD=0.690000
_ULD=1.866000
_DETECTORSLIT='unkn'
_AUX1=0.000000
_AUX2=0.000000
_AUX3=0.000000
_TIMESTARTED=3630
_TEMP_RATE=0.000000
_TEMP_DELAY=0.000000
_KV=35
_MA=40
_RANGE_WL=1.788970
_3DPLANE=0
_2THETACOUNTS
   0.0000      5645
; (Data for Range number 24)
_DRIVE='PHI'
_STEPTIME=20
_STEPSIZE=5.000000
_STEPMODE='S'
_START=0.000000
_THETA=23.5
_2THETA=47
_KHI=30
_PHI=0.000000
_X=50
_Y=-25
_Z=0.000000
_DIVERGENCE=3.000000
_ANTISCATTER=3.000000
_DETECTOR=1
; S.C.
_HV=687
_GAIN=80
_LLD=0.690000
_ULD=1.866000
_DETECTORSLIT='unkn'
_AUX1=0.000000
_AUX2=0.000000
_AUX3=0.000000
_TIMESTARTED=3655
_TEMP_RATE=0.000000
_TEMP_DELAY=0.000000
_KV=35
_MA=40
_RANGE_WL=1.788970
_3DPLANE=0
_2THETACOUNTS
   0.0000      5618
; (Data for Range number 25)
_DRIVE='PHI'
_STEPTIME=20
_STEPSIZE=5.000000
_STEPMODE='S'
_START=0.000000
_THETA=23.5
_2THETA=47
_KHI=35
_PHI=0.000000
_X=50
_Y=-25
_Z=0.000000
_DIVERGENCE=3.000000
_ANTISCATTER=3.000000
_DETECTOR=1
; S.C.
_HV=687
_GAIN=80
_LLD=0.690000
_ULD=1.866000
_DETECTORSLIT='unkn'
_AUX1=0.000000
_AUX2=0.000000
_AUX3=0.000000
_TIMESTARTED=3679
_TEMP_RATE=0.000000
_TEMP_DELAY=0.000000
_KV=35
_MA=40
_RANGE_WL=1.788970
_3DPLANE=0
_2THETACOUNTS
   0.0000      5544
; (Data for Range number 26)
_DRIVE='PHI'
_STEPTIME=20
_STEPSIZE=5.000000
_STEPMODE='S'
_START=0.000000
_THETA=23.5
_2THETA=47
_KHI=40
_PHI=0.000000
_X=50
_Y=-25
_Z=0.000000
_DIVERGENCE=3.000000
_ANTISCATTER=3.000000
_DETECTOR=1
; S.C.
_HV=687
_GAIN=80
_LLD=0.690000
_ULD=1.866000
_DETECTORSLIT='unkn'
_AUX1=0.000000
_AUX2=0.000000
_AUX3=0.000000
_TIMESTARTED=3704
_TEMP_RATE=0.000000
_TEMP_DELAY=0.000000
_KV=35
_MA=40
_RANGE_WL=1.788970
_3DPLANE=0
_2THETACOUNTS
   0.0000      5539
; (Data for Range number 27)
_DRIVE='PHI'
_STEPTIME=20
_STEPSIZE=5.000000
_STEPMODE='S'
_START=0.000000
_THETA=23.5
_2THETA=47
_KHI=45
_PHI=0.000000
_X=50
_Y=-25
_Z=0.000000
_DIVERGENCE=3.000000
_ANTISCATTER=3.000000
_DETECTOR=1
; S.C.
_HV=687
_GAIN=80
_LLD=0.690000
_ULD=1.866000
_DETECTORSLIT='unkn'
_AUX1=0.000000
_AUX2=0.000000
_AUX3=0.000000
_TIMESTARTED=3729
_TEMP_RATE=0.000000
_TEMP_DELAY=0.000000
_KV=35
_MA=40
_RANGE_WL=1.788970
_3DPLANE=0
_2THETACOUNTS
   0.0000      5581
; (Data for Range number 28)
_DRIVE='PHI'
_STEPTIME=20
_STEPSIZE=5.000000
_STEPMODE='S'
_START=0.000000
_THETA=23.5
_2THETA=47
_KHI=50
_PHI=0.000000
_X=50
_Y=-25
_Z=0.000000
_DIVERGENCE=3.000000
_ANTISCATTER=3.000000
_DETECTOR=1
; S.C.
_HV=687
_GAIN=80
_LLD=0.690000
_ULD=1.866000
_DETECTORSLIT='unkn'
_AUX1=0.000000
_AUX2=0.000000
_AUX3=0.000000
_TIMESTARTED=3754
_TEMP_RATE=0.000000
_TEMP_DELAY=0.000000
_KV=35
_MA=40
_RANGE_WL=1.788970
_3DPLANE=0
_2THETACOUNTS
   0.0000      5538
; (Data for Range number 29)
_DRIVE='PHI'
_STEPTIME=20
_STEPSIZE=5.000000
_STEPMODE='S'
_START=0.000000
_THETA=23.5
_2THETA=47
_KHI=55
_PHI=0.000000
_X=50
_Y=-25
_Z=0.000000
_DIVERGENCE=3.000000
_ANTISCATTER=3.000000
_DETECTOR=1
; S.C.
_HV=687
_GAIN=80
_LLD=0.690000
_ULD=1.866000
_DETECTORSLIT='unkn'
_AUX1=0.000000
_AUX2=0.000000
_AUX3=0.000000
_TIMESTARTED=3778
_TEMP_RATE=0.000000
_TEMP_DELAY=0.000000
_KV=35
_MA=40
_RANGE_WL=1.788970
_3DPLANE=0
_2THETACOUNTS
   0.0000      5572
; (Data for Range number 30)
_DRIVE='PHI'
_STEPTIME=20
_STEPSIZE=5.000000
_STEPMODE='S'
_START=0.000000
_THETA=23.5
_2THETA=47
_KHI=60
_PHI=0.000000
_X=50
_Y=-25
_Z=0.000000
_DIVERGENCE=3.000000
_ANTISCATTER=3.000000
_DETECTOR=1
; S.C.
_HV=687
_GAIN=80
_LLD=0.690000
_ULD=1.866000
_DETECTORSLIT='unkn'
_AUX1=0.000000
_AUX2=0.000000
_AUX3=0.000000
_TIMESTARTED=3803
_TEMP_RATE=0.000000
_TEMP_DELAY=0.000000
_KV=35
_MA=40
_RANGE_WL=1.788970
_3DPLANE=0
_2THETACOUNTS
   0.0000      5553
; (Data for Range number 31)
_DRIVE='PHI'
_STEPTIME=20
_STEPSIZE=5.000000
_STEPMODE='S'
_START=0.000000
_THETA=23.5
_2THETA=47
_KHI=65
_PHI=0.000000
_X=50
_Y=-25
_Z=0.000000
_DIVERGENCE=3.000000
_ANTISCATTER=3.000000
_DETECTOR=1
; S.C.
_HV=687
_GAIN=80
_LLD=0.690000
_ULD=1.866000
_DETECTORSLIT='unkn'
_AUX1=0.000000
_AUX2=0.000000
_AUX3=0.000000
_TIMESTARTED=3828
_TEMP_RATE=0.000000
_TEMP_DELAY=0.000000
_KV=35
_MA=40
_RANGE_WL=1.788970
_3DPLANE=0
_2THETACOUNTS
   0.0000      5470
; (Data for Range number 32)
_DRIVE='PHI'
_STEPTIME=20
_STEPSIZE=5.000000
_STEPMODE='S'
[...]
_AUX3=0.000000
_TIMESTARTED=11823
_TEMP_RATE=0.000000
_TEMP_DELAY=0.000000
_KV=35
_MA=40
_RANGE_WL=1.788970
_3DPLANE=0
_2THETACOUNTS
   0.0000       863
   5.0000       969
  10.0000       879
  15.0000       879
  20.0000       905
  25.0000       837
  30.0000       927
  35.0000       931
  40.0000       898
  45.0000       968
  50.0000       909
  55.0000       873
  60.0000       837
  65.0000       902
  70.0000       859
  75.0000       917
  80.0000       847
  85.0000       861
  90.0000       919
  95.0000       934
 100.0000       869
 105.0000       875
 110.0000       923
 115.0000       849
 120.0000       859
 125.0000       945
 130.0000       903
 135.0000       875
 140.0000       857
 145.0000       893
 150.0000       933
 155.0000       851
 160.0000       996
 165.0000       817
 170.0000       835
 175.0000       874
 180.0000       858
 185.0000       923
 190.0000       957
 195.0000       922
 200.0000       889
 205.0000       885
 210.0000       904
 215.0000       889
 220.0000       887
 225.0000       929
 230.0000       969
 235.0000       893
 240.0000       904
 245.0000       892
 250.0000       929
 255.0000       918
 260.0000       923
 265.0000       880
 270.0000       921
 275.0000       898
 280.0000       948
 285.0000       880
 290.0000       841
 295.0000       902
 300.0000       917
 305.0000       897
 310.0000       965
 315.0000       889
 320.0000       956
 325.0000       892
 330.0000       941
 335.0000       818
 340.0000       937
 345.0000       874
 350.0000       869
 355.0000       891
; (Data for Range number 119)
_DRIVE='PHI'
_STEPTIME=2.000000
_STEPSIZE=5.000000
_STEPMODE='C'
_START=0.000000
_THETA=49.726
_2THETA=99.452
_KHI=80
_PHI=0.000000
_X=50
_Y=-25
_Z=0.000000
_DIVERGENCE=3.000000
_ANTISCATTER=3.000000
_DETECTOR=1
; S.C.
_HV=687
_GAIN=80
_LLD=0.690000
_ULD=1.866000
_DETECTORSLIT='unkn'
_AUX1=0.000000
_AUX2=0.000000
_AUX3=0.000000
_TIMESTARTED=12028
_TEMP_RATE=0.000000
_TEMP_DELAY=0.000000
_KV=35
_MA=40
_RANGE_WL=1.788970
_3DPLANE=0
_2THETACOUNTS
   0.0000       812
   5.0000       714
  10.0000       766
  15.0000       705
  20.0000       740
  25.0000       738
  30.0000       703
  35.0000       808
  40.0000       789
  45.0000       710
  50.0000       731
  55.0000       748
  60.0000       729
  65.0000       733
  70.0000       754
  75.0000       754
  80.0000       718
  85.0000       789
  90.0000       727
  95.0000       724
 100.0000       760
 105.0000       744
 110.0000       717
 115.0000       721
 120.0000       725
 125.0000       732
 130.0000       742
 135.0000       727
 140.0000       759
 145.0000       749
 150.0000       720
 155.0000       757
 160.0000       760
 165.0000       729
 170.0000       802
 175.0000       705
 180.0000       808
 185.0000       729
 190.0000       781
 195.0000       817
 200.0000       749
 205.0000       707
 210.0000       745
 215.0000       752
 220.0000       775
 225.0000       751
 230.0000       753
 235.0000       755
 240.0000       801
 245.0000       736
 250.0000       820
 255.0000       806
 260.0000       770
 265.0000       782
 270.0000       728
 275.0000       776
 280.0000       810
 285.0000       807
 290.0000       745
 295.0000       763
 300.0000       717
 305.0000       758
 310.0000       759
 315.0000       772
 320.0000       801
 325.0000       811
 330.0000       753
 335.0000       769
 340.0000       781
 345.0000       784
 350.0000       815
 355.0000       761
; (Data for Range number 120)
_DRIVE='PHI'
_STEPTIME=20
_STEPSIZE=5.000000
_STEPMODE='S'
_START=0.000000
_THETA=47
_2THETA=94
_KHI=0.000000
_PHI=0.000000
_X=50
_Y=-25
_Z=0.000000
_DIVERGENCE=3.000000
_ANTISCATTER=3.000000
_DETECTOR=1
; S.C.
_HV=687
_GAIN=80
_LLD=0.690000
_ULD=1.866000
_DETECTORSLIT='unkn'
_AUX1=0.000000
_AUX2=0.000000
_AUX3=0.000000
_TIMESTARTED=12231
_TEMP_RATE=0.000000
_TEMP_DELAY=0.000000
_KV=35
_MA=40
_RANGE_WL=1.788970
_3DPLANE=0
_2THETACOUNTS
   0.0000      5025
; (Data for Range number 121)
_DRIVE='PHI'
_STEPTIME=20
_STEPSIZE=5.000000
_STEPMODE='S'
_START=0.000000
_THETA=47
_2THETA=94
_KHI=5.000000
_PHI=0.000000
_X=50
_Y=-25
_Z=0.000000
_DIVERGENCE=3.000000
_ANTISCATTER=3.000000
_DETECTOR=1
; S.C.
_HV=687
_GAIN=80
_LLD=0.690000
_ULD=1.866000
_DETECTORSLIT='unkn'
_AUX1=0.000000
_AUX2=0.000000
_AUX3=0.000000
_TIMESTARTED=12255
_TEMP_RATE=0.000000
_TEMP_DELAY=0.000000
_KV=35
_MA=40
_RANGE_WL=1.788970
_3DPLANE=0
_2THETACOUNTS
   0.0000      5047
; (Data for Range number 122)
_DRIVE='PHI'
_STEPTIME=20
_STEPSIZE=5.000000
_STEPMODE='S'
_START=0.000000
_THETA=47
_2THETA=94
_KHI=10
_PHI=0.000000
_X=50
_Y=-25
_Z=0.000000
_DIVERGENCE=3.000000
_ANTISCATTER=3.000000
_DETECTOR=1
; S.C.
_HV=687
_GAIN=80
_LLD=0.690000
_ULD=1.866000
_DETECTORSLIT='unkn'
_AUX1=0.000000
_AUX2=0.000000
_AUX3=0.000000
_TIMESTARTED=12280
_TEMP_RATE=0.000000
_TEMP_DELAY=0.000000
_KV=35
_MA=40
_RANGE_WL=1.788970
_3DPLANE=0
_2THETACOUNTS
   0.0000      5096
; (Data for Range number 123)
_DRIVE='PHI'
_STEPTIME=20
_STEPSIZE=5.000000
_STEPMODE='S'
_START=0.000000
_THETA=47
_2THETA=94
_KHI=15
_PHI=0.000000
_X=50
_Y=-25
_Z=0.000000
_DIVERGENCE=3.000000
_ANTISCATTER=3.000000
_DETECTOR=1
; S.C.
_HV=687
_GAIN=80
_LLD=0.690000
_ULD=1.866000
_DETECTORSLIT='unkn'
_AUX1=0.000000
_AUX2=0.000000
_AUX3=0.000000
_TIMESTARTED=12305
_TEMP_RATE=0.000000
_TEMP_DELAY=0.000000
_KV=35
_MA=40
_RANGE_WL=1.788970
_3DPLANE=0
_2THETACOUNTS
   0.0000      5096
; (Data for Range number 124)
_DRIVE='PHI'
_STEPTIME=20
_STEPSIZE=5.000000
_STEPMODE='S'
_START=0.000000
_THETA=47
_2THETA=94
_KHI=20
_PHI=0.000000
_X=50
_Y=-25
_Z=0.000000
_DIVERGENCE=3.000000
_ANTISCATTER=3.000000
_DETECTOR=1
; S.C.
_HV=687
_GAIN=80
_LLD=0.690000
_ULD=1.866000
_DETECTORSLIT='unkn'
_AUX1=0.000000
_AUX2=0.000000
_AUX3=0.000000
_TIMESTARTED=12329
_TEMP_RATE=0.000000
_TEMP_DELAY=0.000000
_KV=35
_MA=40
_RANGE_WL=1.788970
_3DPLANE=0
_2THETACOUNTS
   0.0000      4970
; (Data for Range number 125)
_DRIVE='PHI'
_STEPTIME=20
_STEPSIZE=5.000000
_STEPMODE='S'
_START=0.000000
_THETA=47
_2THETA=94
_KHI=25
_PHI=0.000000
_X=50
_Y=-25
_Z=0.000000
_DIVERGENCE=3.000000
_ANTISCATTER=3.000000
_DETECTOR=1
; S.C.
_HV=687
_GAIN=80
_LLD=0.690000
_ULD=1.866000
_DETECTORSLIT='unkn'
_AUX1=0.000000
_AUX2=0.000000
_AUX3=0.000000
_TIMESTARTED=12354
_TEMP_RATE=0.000000
_TEMP_DELAY=0.000000
_KV=35
_MA=40
_RANGE_WL=1.788970
_3DPLANE=0
_2THETACOUNTS
   0.0000      5028
; (Data for Range number 126)
_DRIVE='PHI'
_STEPTIME=20
_STEPSIZE=5.000000
_STEPMODE='S'
_START=0.000000
_THETA=47
_2THETA=94
_KHI=30
_PHI=0.000000
_X=50
_Y=-25
_Z=0.000000
_DIVERGENCE=3.000000
_ANTISCATTER=3.000000
_DETECTOR=1
; S.C.
_HV=687
_GAIN=80
_LLD=0.690000
_ULD=1.866000
_DETECTORSLIT='unkn'
_AUX1=0.000000
_AUX2=0.000000
_AUX3=0.000000
_TIMESTARTED=12378
_TEMP_RATE=0.000000
_TEMP_DELAY=0.000000
_KV=35
_MA=40
_RANGE_WL=1.788970
_3DPLANE=0
_2THETACOUNTS
   0.0000      5004
; (Data for Range number 127)
_DRIVE='PHI'
_STEPTIME=20
_STEPSIZE=5.000000
_STEPMODE='S'
_START=0.000000
_THETA=47
_2THETA=94
_KHI=35
_PHI=0.000000
_X=50
_Y=-25
_Z=0.000000
_DIVERGENCE=3.000000
_ANTISCATTER=3.000000
_DETECTOR=1
; S.C.
_HV=687
_GAIN=80
_LLD=0.690000
_ULD=1.866000
_DETECTORSLIT='unkn'
_AUX1=0.000000
_AUX2=0.000000
_AUX3=0.000000
_TIMESTARTED=12404
_TEMP_RATE=0.000000
_TEMP_DELAY=0.000000
_KV=35
_MA=40
_RANGE_WL=1.788970
_3DPLANE=0
_2THETACOUNTS
   0.0000      4914
; (Data for Range number 128)
_DRIVE='PHI'
_STEPTIME=20
_STEPSIZE=5.000000
_STEPMODE='S'
_START=0.000000
_THETA=47
_2THETA=94
_KHI=40
_PHI=0.000000
_X=50
_Y=-25
_Z=0.000000
_DIVERGENCE=3.000000
_ANTISCATTER=3.000000
_DETECTOR=1
; S.C.
_HV=687
_GAIN=80
_LLD=0.690000
_ULD=1.866000
_DETECTORSLIT='unkn'
_AUX1=0.000000
_AUX2=0.000000
_AUX3=0.000000
_TIMESTARTED=12428
_TEMP_RATE=0.000000
_TEMP_DELAY=0.000000
_KV=35
_MA=40
_RANGE_WL=1.788970
_3DPLANE=0
_2THETACOUNTS
   0.0000      4831
; (Data for Range number 129)
_DRIVE='PHI'
_STEPTIME=20
_STEPSIZE=5.000000
_STEPMODE='S'
_START=0.000000
_THETA=47
_2THETA=94
_KHI=45
_PHI=0.000000
_X=50
_Y=-25
_Z=0.000000
_DIVERGENCE=3.000000
_ANTISCATTER=3.000000
_DETECTOR=1
; S.C.
_HV=687
_GAIN=80
_LLD=0.690000
_ULD=1.866000
_DETECTORSLIT='unkn'
_AUX1=0.000000
_AUX2=0.000000
_AUX3=0.000000
_TIMESTARTED=12453
_TEMP_RATE=0.000000
_TEMP_DELAY=0.000000
_KV=35
_MA=40
_RANGE_WL=1.788970
_3DPLANE=0
_2THETACOUNTS
   0.0000      4949
; (Data for Range number 130)
_DRIVE='PHI'
_STEPTIME=20
_STEPSIZE=5.000000
_STEPMODE='S'
_START=0.000000
_THETA=47
_2THETA=94
_KHI=50
_PHI=0.000000
_X=50
_Y=-25
_Z=0.000000
_DIVERGENCE=3.000000
_ANTISCATTER=3.000000
_DETECTOR=1
; S.C.
_HV=687
_GAIN=80
_LLD=0.690000
_ULD=1.866000
_DETECTORSLIT='unkn'
_AUX1=0.000000
_AUX2=0.000000
_AUX3=0.000000
_TIMESTARTED=12478
_TEMP_RATE=0.000000
_TEMP_DELAY=0.000000
_KV=35
_MA=40
_RANGE_WL=1.788970
_3DPLANE=0
_2THETACOUNTS
   0.0000      5006
; (Data for Range number 131)
_DRIVE='PHI'
_STEPTIME=20
_STEPSIZE=5.000000
_STEPMODE='S'
_START=0.000000
_THETA=47
_2THETA=94
_KHI=55
_PHI=0.000000
_X=50
_Y=-25
_Z=0.000000
_DIVERGENCE=3.000000
_ANTISCATTER=3.000000
_DETECTOR=1
; S.C.
_HV=687
_GAIN=80
_LLD=0.690000
_ULD=1.866000
_DETECTORSLIT='unkn'
_AUX1=0.000000
_AUX2=0.000000
_AUX3=0.000000
_TIMESTARTED=12502
_TEMP_RATE=0.000000
_TEMP_DELAY=0.000000
_KV=35
_MA=40
_RANGE_WL=1.788970
_3DPLANE=0
_2THETACOUNTS
   0.0000      4810
; (Data for Range number 132)
_DRIVE='PHI'
_STEPTIME=20
_STEPSIZE=5.000000
_STEPMODE='S'
_START=0.000000
_THETA=47
_2THETA=94
_KHI=60
_PHI=0.000000
_X=50
_Y=-25
_Z=0.000000
_DIVERGENCE=3.000000
_ANTISCATTER=3.000000
_DETECTOR=1
; S.C.
_HV=687
_GAIN=80
_LLD=0.690000
_ULD=1.866000
_DETECTORSLIT='unkn'
_AUX1=0.000000
_AUX2=0.000000
_AUX3=0.000000
_TIMESTARTED=12527
_TEMP_RATE=0.000000
_TEMP_DELAY=0.000000
_KV=35
_MA=40
_RANGE_WL=1.788970
_3DPLANE=0
_2THETACOUNTS
   0.0000      4931
; (Data for Range number 133)
_DRIVE='PHI'
_STEPTIME=20
_STEPSIZE=5.000000
_STEPMODE='S'
_START=0.000000
_THETA=47
_2THETA=94
_KHI=65
_PHI=0.000000
_X=50
_Y=-25
_Z=0.000000
_DIVERGENCE=3.000000
_ANTISCATTER=3.000000
_DETECTOR=1
; S.C.
_HV=687
_GAIN=80
_LLD=0.690000
_ULD=1.866000
_DETECTORSLIT='unkn'
_AUX1=0.000000
_AUX2=0.000000
_AUX3=0.000000
_TIMESTARTED=12552
_TEMP_RATE=0.000000
_TEMP_DELAY=0.000000
_KV=35
_MA=40
_RANGE_WL=1.788970
_3DPLANE=0
_2THETACOUNTS
   0.0000      4845
; (Data for Range number 134)
_DRIVE='PHI'
_STEPTIME=20
_STEPSIZE=5.000000
_STEPMODE='S'
_START=0.000000
_THETA=47
_2THETA=94
_KHI=70
_PHI=0.000000
_X=50
_Y=-25
_Z=0.000000
_DIVERGENCE=3.000000
_ANTISCATTER=3.000000
_DETECTOR=1
; S.C.
_HV=687
_GAIN=80
_LLD=0.690000
_ULD=1.866000
_DETECTORSLIT='unkn'
_AUX1=0.000000
_AUX2=0.000000
_AUX3=0.000000
_TIMESTARTED=12577
_TEMP_RATE=0.000000
_TEMP_DELAY=0.000000
_KV=35
_MA=40
_RANGE_WL=1.788970
_3DPLANE=0
_2THETACOUNTS
   0.0000      4985
; (Data for Range number 135)
_DRIVE='PHI'
_STEPTIME=20
_STEPSIZE=5.000000
_STEPMODE='S'
_START=0.000000
_THETA=47
_2THETA=94
_KHI=75
_PHI=0.000000
_X=50
_Y=-25
_Z=0.000000
_DIVERGENCE=3.000000
_ANTISCATTER=3.000000
_DETECTOR=1
; S.C.
_HV=687
_GAIN=80
_LLD=0.690000
_ULD=1.866000
_DETECTORSLIT='unkn'
_AUX1=0.000000
_AUX2=0.000000
_AUX3=0.000000
_TIMESTARTED=12602
_TEMP_RATE=0.000000
_TEMP_DELAY=0.000000
_KV=35
_MA=40
_RANGE_WL=1.788970
_3DPLANE=0
_2THETACOUNTS
   0.0000      4835
; (Data for Range number 136)
_DRIVE='PHI'
_STEPTIME=20
_STEPSIZE=5.000000
_STEPMODE='S'
_START=0.000000
_THETA=47
_2THETA=94
_KHI=80
_PHI=0.000000
_X=50
_Y=-25
_Z=0.000000
_DIVERGENCE=3.000000
_ANTISCATTER=3.000000
_DETECTOR=1
; S.C.
_HV=687
_GAIN=80
_LLD=0.690000
_ULD=1.866000
_DETECTORSLIT='unkn'
_AUX1=0.000000
_AUX2=0.000000
_AUX3=0.000000
_TIMESTARTED=12627
_TEMP_RATE=0.000000
_TEMP_DELAY=0.000000
_KV=35
_MA=40
_RANGE_WL=1.788970
_3DPLANE=0
_2THETACOUNTS
   0.0000      4438
; (Data for Range number 137)
_DRIVE='PHI'
_STEPTIME=20
_STEPSIZE=5.000000
_STEPMODE='S'
_START=0.000000
_THETA=52
_2THETA=104
_KHI=0.000000
_PHI=0.000000
_X=50
_Y=-25
_Z=0.000000
_DIVERGENCE=3.000000
_ANTISCATTER=3.000000
_DETECTOR=1
; S.C.
_HV=687
_GAIN=80
_LLD=0.690000
_ULD=1.866000
_DETECTORSLIT='unkn'
_AUX1=0.000000
_AUX2=0.000000
_AUX3=0.000000
_TIMESTARTED=12670
_TEMP_RATE=0.000000
_TEMP_DELAY=0.000000
_KV=35
_MA=40
_RANGE_WL=1.788970
_3DPLANE=0
_2THETACOUNTS
   0.0000      5242
; (Data for Range number 138)
_DRIVE='PHI'
_STEPTIME=20
_STEPSIZE=5.000000
_STEPMODE='S'
_START=0.000000
_THETA=52
_2THETA=104
_KHI=5.000000
_PHI=0.000000
_X=50
_Y=-25
_Z=0.000000
_DIVERGENCE=3.000000
_ANTISCATTER=3.000000
_DETECTOR=1
; S.C.
_HV=687
_GAIN=80
_LLD=0.690000
_ULD=1.866000
_DETECTORSLIT='unkn'
_AUX1=0.000000
_AUX2=0.000000
_AUX3=0.000000
_TIMESTARTED=12695
_TEMP_RATE=0.000000
_TEMP_DELAY=0.000000
_KV=35
_MA=40
_RANGE_WL=1.788970
_3DPLANE=0
_2THETACOUNTS
   0.0000      5258
; (Data for Range number 139)
_DRIVE='PHI'
_STEPTIME=20
_STEPSIZE=5.000000
_STEPMODE='S'
_START=0.000000
_THETA=52
_2THETA=104
_KHI=10
_PHI=0.000000
_X=50
_Y=-25
_Z=0.000000
_DIVERGENCE=3.000000
_ANTISCATTER=3.000000
_DETECTOR=1
; S.C.
_HV=687
_GAIN=80
_LLD=0.690000
_ULD=1.866000
_DETECTORSLIT='unkn'
_AUX1=0.000000
_AUX2=0.000000
_AUX3=0.000000
_TIMESTARTED=12719
_TEMP_RATE=0.000000
_TEMP_DELAY=0.000000
_KV=35
_MA=40
_RANGE_WL=1.788970
_3DPLANE=0
_2THETACOUNTS
   0.0000      5127
; (Data for Range number 140)
_DRIVE='PHI'
_STEPTIME=20
_STEPSIZE=5.000000
_STEPMODE='S'
_START=0.000000
_THETA=52
_2THETA=104
_KHI=15
_PHI=0.000000
_X=50
_Y=-25
_Z=0.000000
_DIVERGENCE=3.000000
_ANTISCATTER=3.000000
_DETECTOR=1
; S.C.
_HV=687
_GAIN=80
_LLD=0.690000
_ULD=1.866000
_DETECTORSLIT='unkn'
_AUX1=0.000000
_AUX2=0.000000
_AUX3=0.000000
_TIMESTARTED=12744
_TEMP_RATE=0.000000
_TEMP_DELAY=0.000000
_KV=35
_MA=40
_RANGE_WL=1.788970
_3DPLANE=0
_2THETACOUNTS
   0.0000      5183
; (Data for Range number 141)
_DRIVE='PHI'
_STEPTIME=20
_STEPSIZE=5.000000
_STEPMODE='S'
_START=0.000000
_THETA=52
_2THETA=104
_KHI=20
_PHI=0.000000
_X=50
_Y=-25
_Z=0.000000
_DIVERGENCE=3.000000
_ANTISCATTER=3.000000
_DETECTOR=1
; S.C.
_HV=687
_GAIN=80
_LLD=0.690000
_ULD=1.866000
_DETECTORSLIT='unkn'
_AUX1=0.000000
_AUX2=0.000000
_AUX3=0.000000
_TIMESTARTED=12769
_TEMP_RATE=0.000000
_TEMP_DELAY=0.000000
_KV=35
_MA=40
_RANGE_WL=1.788970
_3DPLANE=0
_2THETACOUNTS
   0.0000      5218
; (Data for Range number 142)
_DRIVE='PHI'
_STEPTIME=20
_STEPSIZE=5.000000
_STEPMODE='S'
_START=0.000000
_THETA=52
_2THETA=104
_KHI=25
_PHI=0.000000
_X=50
_Y=-25
_Z=0.000000
_DIVERGENCE=3.000000
_ANTISCATTER=3.000000
_DETECTOR=1
; S.C.
_HV=687
_GAIN=80
_LLD=0.690000
_ULD=1.866000
_DETECTORSLIT='unkn'
_AUX1=0.000000
_AUX2=0.000000
_AUX3=0.000000
_TIMESTARTED=12793
_TEMP_RATE=0.000000
_TEMP_DELAY=0.000000
_KV=35
_MA=40
_RANGE_WL=1.788970
_3DPLANE=0
_2THETACOUNTS
   0.0000      5164
; (Data for Range number 143)
_DRIVE='PHI'
_STEPTIME=20
_STEPSIZE=5.000000
_STEPMODE='S'
_START=0.000000
_THETA=52
_2THETA=104
_KHI=30
_PHI=0.000000
_X=50
_Y=-25
_Z=0.000000
_DIVERGENCE=3.000000
_ANTISCATTER=3.000000
_DETECTOR=1
; S.C.
_HV=687
_GAIN=80
_LLD=0.690000
_ULD=1.866000
_DETECTORSLIT='unkn'
_AUX1=0.000000
_AUX2=0.000000
_AUX3=0.000000
_TIMESTARTED=12818
_TEMP_RATE=0.000000
_TEMP_DELAY=0.000000
_KV=35
_MA=40
_RANGE_WL=1.788970
_3DPLANE=0
_2THETACOUNTS
   0.0000      5355
; (Data for Range number 144)
_DRIVE='PHI'
_STEPTIME=20
_STEPSIZE=5.000000
_STEPMODE='S'
_START=0.000000
_THETA=52
_2THETA=104
_KHI=35
_PHI=0.000000
_X=50
_Y=-25
_Z=0.000000
_DIVERGENCE=3.000000
_ANTISCATTER=3.000000
_DETECTOR=1
; S.C.
_HV=687
_GAIN=80
_LLD=0.690000
_ULD=1.866000
_DETECTORSLIT='unkn'
_AUX1=0.000000
_AUX2=0.000000
_AUX3=0.000000
_TIMESTARTED=12843
_TEMP_RATE=0.000000
_TEMP_DELAY=0.000000
_KV=35
_MA=40
_RANGE_WL=1.788970
_3DPLANE=0
_2THETACOUNTS
   0.0000      5175
; (Data for Range number 145)
_DRIVE='PHI'
_STEPTIME=20
_STEPSIZE=5.000000
_STEPMODE='S'
_START=0.000000
_THETA=52
_2THETA=104
_KHI=40
_PHI=0.000000
_X=50
_Y=-25
_Z=0.000000
_DIVERGENCE=3.000000
_ANTISCATTER=3.000000
_DETECTOR=1
; S.C.
_HV=687
_GAIN=80
_LLD=0.690000
_ULD=1.866000
_DETECTORSLIT='unkn'
_AUX1=0.000000
_AUX2=0.000000
_AUX3=0.000000
_TIMESTARTED=12868
_TEMP_RATE=0.000000
_TEMP_DELAY=0.000000
_KV=35
_MA=40
_RANGE_WL=1.788970
_3DPLANE=0
_2THETACOUNTS
   0.0000      5224
; (Data for Range number 146)
_DRIVE='PHI'
_STEPTIME=20
_STEPSIZE=5.000000
_STEPMODE='S'
_START=0.000000
_THETA=52
_2THETA=104
_KHI=45
_PHI=0.000000
_X=50
_Y=-25
_Z=0.000000
_DIVERGENCE=3.000000
_ANTISCATTER=3.000000
_DETECTOR=1
; S.C.
_HV=687
_GAIN=80
_LLD=0.690000
_ULD=1.866000
_DETECTORSLIT='unkn'
_AUX1=0.000000
_AUX2=0.000000
_AUX3=0.000000
_TIMESTARTED=12892
_TEMP_RATE=0.000000
_TEMP_DELAY=0.000000
_KV=35
_MA=40
_RANGE_WL=1.788970
_3DPLANE=0
_2THETACOUNTS
   0.0000      5114
; (Data for Range number 147)
_DRIVE='PHI'
_STEPTIME=20
_STEPSIZE=5.000000
_STEPMODE='S'
_START=0.000000
_THETA=52
_2THETA=104
_KHI=50
_PHI=0.000000
_X=50
_Y=-25
_Z=0.000000
_DIVERGENCE=3.000000
_ANTISCATTER=3.000000
_DETECTOR=1
; S.C.
_HV=687
_GAIN=80
_LLD=0.690000
_ULD=1.866000
_DETECTORSLIT='unkn'
_AUX1=0.000000
_AUX2=0.000000
_AUX3=0.000000
_TIMESTARTED=12917
_TEMP_RATE=0.000000
_TEMP_DELAY=0.000000
_KV=35
_MA=40
_RANGE_WL=1.788970
_3DPLANE=0
_2THETACOUNTS
   0.0000      5092
; (Data for Range number 148)
_DRIVE='PHI'
_STEPTIME=20
_STEPSIZE=5.000000
_STEPMODE='S'
_START=0.000000
_THETA=52
_2THETA=104
_KHI=55
_PHI=0.000000
_X=50
_Y=-25
_Z=0.000000
_DIVERGENCE=3.000000
_ANTISCATTER=3.000000
_DETECTOR=1
; S.C.
_HV=687
_GAIN=80
_LLD=0.690000
_ULD=1.866000
_DETECTORSLIT='unkn'
_AUX1=0.000000
_AUX2=0.000000
_AUX3=0.000000
_TIMESTARTED=12942
_TEMP_RATE=0.000000
_TEMP_DELAY=0.000000
_KV=35
_MA=40
_RANGE_WL=1.788970
_3DPLANE=0
_2THETACOUNTS
   0.0000      5234
; (Data for Range number 149)
_DRIVE='PHI'
_STEPTIME=20
_STEPSIZE=5.000000
_STEPMODE='S'
_START=0.000000
_THETA=52
_2THETA=104
_KHI=60
_PHI=0.000000
_X=50
_Y=-25
_Z=0.000000
_DIVERGENCE=3.000000
_ANTISCATTER=3.000000
_DETECTOR=1
; S.C.
_HV=687
_GAIN=80
_LLD=0.690000
_ULD=1.866000
_DETECTORSLIT='unkn'
_AUX1=0.000000
_AUX2=0.000000
_AUX3=0.000000
_TIMESTARTED=12967
_TEMP_RATE=0.000000
_TEMP_DELAY=0.000000
_KV=35
_MA=40
_RANGE_WL=1.788970
_3DPLANE=0
_2THETACOUNTS
   0.0000      5113
; (Data for Range number 150)
_DRIVE='PHI'
_STEPTIME=20
_STEPSIZE=5.000000
_STEPMODE='S'
_START=0.000000
_THETA=52
_2THETA=104
_KHI=65
_PHI=0.000000
_X=50
_Y=-25
_Z=0.000000
_DIVERGENCE=3.000000
_ANTISCATTER=3.000000
_DETECTOR=1
; S.C.
_HV=687
_GAIN=80
_LLD=0.690000
_ULD=1.866000
_DETECTORSLIT='unkn'
_AUX1=0.000000
_AUX2=0.000000
_AUX3=0.000000
_TIMESTARTED=12992
_TEMP_RATE=0.000000
_TEMP_DELAY=0.000000
_KV=35
_MA=40
_RANGE_WL=1.788970
_3DPLANE=0
_2THETACOUNTS
   0.0000      4963
; (Data for Range number 151)
_DRIVE='PHI'
_STEPTIME=20
_STEPSIZE=5.000000
_STEPMODE='S'
_START=0.000000
_THETA=52
_2THETA=104
_KHI=70
_PHI=0.000000
_X=50
_Y=-25
_Z=0.000000
_DIVERGENCE=3.000000
_ANTISCATTER=3.000000
_DETECTOR=1
; S.C.
_HV=687
_GAIN=80
_LLD=0.690000
_ULD=1.866000
_DETECTORSLIT='unkn'
_AUX1=0.000000
_AUX2=0.000000
_AUX3=0.000000
_TIMESTARTED=13016
_TEMP_RATE=0.000000
_TEMP_DELAY=0.000000
_KV=35
_MA=40
_RANGE_WL=1.788970
_3DPLANE=0
_2THETACOUNTS
   0.0000      4987
; (Data for Range number 152)
_DRIVE='PHI'
_STEPTIME=20
_STEPSIZE=5.000000
_STEPMODE='S'
_START=0.000000
_THETA=52
_2THETA=104
_KHI=75
_PHI=0.000000
_X=50
_Y=-25
_Z=0.000000
_DIVERGENCE=3.000000
_ANTISCATTER=3.000000
_DETECTOR=1
; S.C.
_HV=687
_GAIN=80
_LLD=0.690000
_ULD=1.866000
_DETECTORSLIT='unkn'
_AUX1=0.000000
_AUX2=0.000000
_AUX3=0.000000
_TIMESTARTED=13040
_TEMP_RATE=0.000000
_TEMP_DELAY=0.000000
_KV=35
_MA=40
_RANGE_WL=1.788970
_3DPLANE=0
_2THETACOUNTS
   0.0000      5010
; (Data for Range number 153)
_DRIVE='PHI'
_STEPTIME=20
_STEPSIZE=5.000000
_STEPMODE='S'
_START=0.000000
_THETA=52
_2THETA=104
_KHI=80
_PHI=0.000000
_X=50
_Y=-25
_Z=0.000000
_DIVERGENCE=3.000000
_ANTISCATTER=3.000000
_DETECTOR=1
; S.C.
_HV=687
_GAIN=80
_LLD=0.690000
_ULD=1.866000
_DETECTORSLIT='unkn'
_AUX1=0.000000
_AUX2=0.000000
_AUX3=0.000000
_TIMESTARTED=13065
_TEMP_RATE=0.000000
_TEMP_DELAY=0.000000
_KV=35
_MA=40
_RANGE_WL=1.788970
_3DPLANE=0
_2THETACOUNTS
   0.0000      4608