File: dat/uxd/fss.UXD
; C:\DIFFDAT1\GIFT\MML\youngung\10-1-fss(from_Hyukjong)\as_R.raw(Diffrac Plus V1.01 file) converted by XCH V1.0
_FILEVERSION=2
_SITE='Korea'
_USER='Admin'
_SAMPLE_CHANGER_CODE=0
_ATTACHMENTS_CODE=0
_GONIOMETER_RADIUS=300
_FIXED_DIVSLIT=1.000000
_FIXED_SAMPLESLIT=0.000000
_FIXED_DETSLIT=0.100000
_MONOCHROMATOR=0
; None
_THIN_FILM='N'
_BETA_FILTER='Y'
_FIXED_ANTISLIT=0.600000
_ANALYZER_CODE=0
; None
_DATEMEASURED='29-Mar-2011 13:41:00'
_WL_UNIT='A'
_WL1=1.788970
_WL2=1.792850
_WL3=1.620790
_WLRATIO=0.500000
_ANODE='Co'
; (Data for Range number 1)
_DRIVE='PHI'
_STEPTIME=2.000000
_STEPSIZE=5.000000
_STEPMODE='C'
_START=0.000000
_THETA=26.059
_2THETA=52.118
_KHI=0.000000
_PHI=0.000000
_X=0.000000
_Y=0.000000
_Z=0.000000
_DIVERGENCE=3.000000
_ANTISCATTER=3.000000
_DETECTOR=1
; S.C.
_HV=687
_GAIN=80
_LLD=0.690000
_ULD=1.866000
_DETECTORSLIT='unkn'
_AUX1=0.000000
_AUX2=0.000000
_AUX3=0.000000
_TIMESTARTED=14
_TEMP_RATE=0.000000
_TEMP_DELAY=0.000000
_KV=35
_MA=40
_RANGE_WL=1.788970
_3DPLANE=0
_2THETACOUNTS
   0.0000      5560
   5.0000      5647
  10.0000      5664
  15.0000      5454
  20.0000      5412
  25.0000      5222
  30.0000      4779
  35.0000      4616
  40.0000      4587
  45.0000      4695
  50.0000      4808
  55.0000      5032
  60.0000      5385
  65.0000      5424
  70.0000      5467
  75.0000      5573
  80.0000      5592
  85.0000      5484
  90.0000      5481
  95.0000      5564
 100.0000      5501
 105.0000      5466
 110.0000      5460
 115.0000      5181
 120.0000      5186
 125.0000      5267
 130.0000      5484
 135.0000      5466
 140.0000      5396
 145.0000      5508
 150.0000      5526
 155.0000      5532
 160.0000      5591
 165.0000      5476
 170.0000      5347
 175.0000      5401
 180.0000      5600
 185.0000      5748
 190.0000      5745
 195.0000      5665
 200.0000      5416
 205.0000      5245
 210.0000      5235
 215.0000      5227
 220.0000      5151
 225.0000      5161
 230.0000      5062
 235.0000      5067
 240.0000      5214
 245.0000      5166
 250.0000      5057
 255.0000      5225
 260.0000      5226
 265.0000      5276
 270.0000      5349
 275.0000      5256
 280.0000      5354
 285.0000      5351
 290.0000      5094
 295.0000      5239
 300.0000      5071
 305.0000      4913
 310.0000      4926
 315.0000      5050
 320.0000      4980
 325.0000      5055
 330.0000      5089
 335.0000      5245
 340.0000      5380
 345.0000      5489
 350.0000      5552
 355.0000      5718
; (Data for Range number 2)
_DRIVE='PHI'
_STEPTIME=2.000000
_STEPSIZE=5.000000
_STEPMODE='C'
_START=0.000000
_THETA=26.059
_2THETA=52.118
_KHI=5.000000
_PHI=0.000000
_X=0.000000
_Y=0.000000
_Z=0.000000
_DIVERGENCE=3.000000
_ANTISCATTER=3.000000
_DETECTOR=1
; S.C.
_HV=687
_GAIN=80
_LLD=0.690000
_ULD=1.866000
_DETECTORSLIT='unkn'
_AUX1=0.000000
_AUX2=0.000000
_AUX3=0.000000
_TIMESTARTED=219
_TEMP_RATE=0.000000
_TEMP_DELAY=0.000000
_KV=35
_MA=40
_RANGE_WL=1.788970
_3DPLANE=0
_2THETACOUNTS
   0.0000      4755
   5.0000      4419
  10.0000      4573
  15.0000      5022
  20.0000      4528
  25.0000      4737
  30.0000      4442
  35.0000      4763
  40.0000      4702
  45.0000      4571
  50.0000      4782
  55.0000      4800
  60.0000      4948
  65.0000      4771
  70.0000      4810
  75.0000      4749
  80.0000      5125
  85.0000      5106
  90.0000      5210
  95.0000      5153
 100.0000      4820
 105.0000      4841
 110.0000      4881
 115.0000      4927
 120.0000      4856
 125.0000      4529
 130.0000      4652
 135.0000      4966
 140.0000      5271
 145.0000      4877
 150.0000      4555
 155.0000      4891
 160.0000      5292
 165.0000      5216
 170.0000      4990
 175.0000      4617
 180.0000      4393
 185.0000      4678
 190.0000      5103
 195.0000      5874
 200.0000      6286
 205.0000      5859
 210.0000      5414
 215.0000      5509
 220.0000      5532
 225.0000      4937
 230.0000      4897
 235.0000      4978
 240.0000      5444
 245.0000      5395
 250.0000      5912
 255.0000      5357
 260.0000      5600
 265.0000      5598
 270.0000      5274
 275.0000      5486
 280.0000      5948
 285.0000      5765
 290.0000      5901
 295.0000      5791
 300.0000      6143
 305.0000      5859
 310.0000      5136
 315.0000      5381
 320.0000      4997
 325.0000      5257
 330.0000      5292
 335.0000      5409
 340.0000      5291
 345.0000      5685
 350.0000      5492
 355.0000      4942
; (Data for Range number 3)
_DRIVE='PHI'
_STEPTIME=2.000000
_STEPSIZE=5.000000
_STEPMODE='C'
_START=0.000000
_THETA=26.059
_2THETA=52.118
_KHI=10
_PHI=0.000000
_X=0.000000
_Y=0.000000
_Z=0.000000
_DIVERGENCE=3.000000
_ANTISCATTER=3.000000
_DETECTOR=1
; S.C.
_HV=687
_GAIN=80
_LLD=0.690000
_ULD=1.866000
_DETECTORSLIT='unkn'
_AUX1=0.000000
_AUX2=0.000000
_AUX3=0.000000
_TIMESTARTED=424
_TEMP_RATE=0.000000
_TEMP_DELAY=0.000000
_KV=35
_MA=40
_RANGE_WL=1.788970
_3DPLANE=0
_2THETACOUNTS
   0.0000      3894
   5.0000      4510
  10.0000      4053
  15.0000      4893
  20.0000      3894
  25.0000      4039
  30.0000      4801
  35.0000      4884
  40.0000      4721
  45.0000      4318
  50.0000      4795
  55.0000      5226
  60.0000      5404
  65.0000      5742
  70.0000      5011
  75.0000      4980
  80.0000      5297
  85.0000      4692
  90.0000      5061
  95.0000      5352
 100.0000      5133
 105.0000      5180
 110.0000      5048
 115.0000      5227
 120.0000      5368
 125.0000      4650
 130.0000      4932
 135.0000      4964
 140.0000      4835
 145.0000      4601
 150.0000      4470
 155.0000      4528
 160.0000      4723
 165.0000      4497
 170.0000      4540
 175.0000      4283
 180.0000      4607
 185.0000      4567
 190.0000      4749
 195.0000      4851
 200.0000      4642
 205.0000      4531
 210.0000      4910
 215.0000      4600
 220.0000      4525
 225.0000      4537
 230.0000      5137
 235.0000      5311
 240.0000      5340
 245.0000      5266
 250.0000      5622
 255.0000      6082
 260.0000      6000
 265.0000      6243
 270.0000      5298
 275.0000      6037
 280.0000      5829
 285.0000      6103
 290.0000      6423
 295.0000      5902
 300.0000      6234
 305.0000      6522
 310.0000      5388
 315.0000      5112
 320.0000      4719
 325.0000      4648
 330.0000      4614
 335.0000      4411
 340.0000      4862
 345.0000      4671
 350.0000      5060
 355.0000      3741
; (Data for Range number 4)
_DRIVE='PHI'
_STEPTIME=2.000000
_STEPSIZE=5.000000
_STEPMODE='C'
_START=0.000000
_THETA=26.059
_2THETA=52.118
_KHI=15
_PHI=0.000000
_X=0.000000
_Y=0.000000
_Z=0.000000
_DIVERGENCE=3.000000
_ANTISCATTER=3.000000
_DETECTOR=1
; S.C.
_HV=687
_GAIN=80
_LLD=0.690000
_ULD=1.866000
_DETECTORSLIT='unkn'
_AUX1=0.000000
_AUX2=0.000000
_AUX3=0.000000
_TIMESTARTED=629
_TEMP_RATE=0.000000
_TEMP_DELAY=0.000000
_KV=35
_MA=40
_RANGE_WL=1.788970
_3DPLANE=0
_2THETACOUNTS
   0.0000      4085
   5.0000      3973
  10.0000      4043
  15.0000      3950
  20.0000      4190
  25.0000      4462
  30.0000      4029
  35.0000      4099
  40.0000      4319
  45.0000      5157
  50.0000      4655
  55.0000      4909
  60.0000      4993
  65.0000      5455
  70.0000      5347
  75.0000      5138
  80.0000      5728
  85.0000      5775
  90.0000      5489
  95.0000      5900
 100.0000      5601
 105.0000      5479
 110.0000      5136
 115.0000      5269
 120.0000      4863
 125.0000      5221
 130.0000      4869
 135.0000      4862
 140.0000      4686
 145.0000      4550
 150.0000      4188
 155.0000      4561
 160.0000      4287
 165.0000      4216
 170.0000      4328
 175.0000      4723
 180.0000      4381
 185.0000      4811
 190.0000      4629
 195.0000      4382
 200.0000      4694
 205.0000      4604
 210.0000      4762
 215.0000      5064
 220.0000      4597
 225.0000      4619
 230.0000      4917
 235.0000      5543
 240.0000      5496
 245.0000      6491
 250.0000      5989
 255.0000      6904
 260.0000      6795
 265.0000      7380
 270.0000      6240
 275.0000      6440
 280.0000      6189
 285.0000      6872
 290.0000      6147
 295.0000      5912
 300.0000      5985
 305.0000      5591
 310.0000      5647
 315.0000      5176
 320.0000      4365
 325.0000      4294
 330.0000      4524
 335.0000      4248
 340.0000      4042
 345.0000      3958
 350.0000      4101
 355.0000      4378
; (Data for Range number 5)
_DRIVE='PHI'
_STEPTIME=2.000000
_STEPSIZE=5.000000
_STEPMODE='C'
_START=0.000000
_THETA=26.059
_2THETA=52.118
_KHI=20
_PHI=0.000000
_X=0.000000
_Y=0.000000
_Z=0.000000
_DIVERGENCE=3.000000
_ANTISCATTER=3.000000
_DETECTOR=1
; S.C.
_HV=687
_GAIN=80
_LLD=0.690000
_ULD=1.866000
_DETECTORSLIT='unkn'
_AUX1=0.000000
_AUX2=0.000000
_AUX3=0.000000
_TIMESTARTED=834
_TEMP_RATE=0.000000
_TEMP_DELAY=0.000000
_KV=35
_MA=40
_RANGE_WL=1.788970
_3DPLANE=0
_2THETACOUNTS
   0.0000      5294
   5.0000      5375
  10.0000      4909
  15.0000      4981
  20.0000      4890
  25.0000      4872
  30.0000      4626
  35.0000      5282
  40.0000      5249
  45.0000      5236
  50.0000      5217
  55.0000      4976
  60.0000      5312
  65.0000      6168
  70.0000      5982
  75.0000      6342
  80.0000      6801
  85.0000      6001
  90.0000      5923
  95.0000      6087
 100.0000      6479
 105.0000      6210
 110.0000      5994
 115.0000      5612
 120.0000      5671
 125.0000      5716
 130.0000      5622
 135.0000      5492
 140.0000      5502
 145.0000      5232
 150.0000      5362
 155.0000      4753
 160.0000      5484
 165.0000      5933
 170.0000      5610
 175.0000      5859
 180.0000      6054
 185.0000      5577
 190.0000      5882
 195.0000      5565
 200.0000      5765
 205.0000      5151
 210.0000      5195
 215.0000      5353
 220.0000      5435
 225.0000      5277
 230.0000      6085
 235.0000      6221
 240.0000      6067
 245.0000      6092
 250.0000      6512
 255.0000      7036
 260.0000      7410
 265.0000      7656
 270.0000      7379
 275.0000      7860
 280.0000      7308
 285.0000      7613
 290.0000      7418
 295.0000      6658
 300.0000      6648
 305.0000      5900
 310.0000      6212
 315.0000      5755
 320.0000      5296
 325.0000      5060
 330.0000      5433
 335.0000      5384
 340.0000      4722
 345.0000      5114
 350.0000      4915
 355.0000      5101
; (Data for Range number 6)
_DRIVE='PHI'
_STEPTIME=2.000000
_STEPSIZE=5.000000
_STEPMODE='C'
_START=0.000000
_THETA=26.059
_2THETA=52.118
_KHI=25
_PHI=0.000000
_X=0.000000
_Y=0.000000
_Z=0.000000
_DIVERGENCE=3.000000
_ANTISCATTER=3.000000
_DETECTOR=1
; S.C.
_HV=687
_GAIN=80
_LLD=0.690000
_ULD=1.866000
_DETECTORSLIT='unkn'
_AUX1=0.000000
_AUX2=0.000000
_AUX3=0.000000
_TIMESTARTED=1039
_TEMP_RATE=0.000000
_TEMP_DELAY=0.000000
_KV=35
_MA=40
_RANGE_WL=1.788970
_3DPLANE=0
_2THETACOUNTS
   0.0000      8842
   5.0000      8378
  10.0000      8336
  15.0000      8320
  20.0000      8192
  25.0000      7383
  30.0000      7183
  35.0000      6391
  40.0000      6823
  45.0000      6519
  50.0000      6313
  55.0000      5967
  60.0000      6485
  65.0000      7078
  70.0000      6638
  75.0000      6649
  80.0000      6552
  85.0000      6303
  90.0000      6615
  95.0000      6131
 100.0000      6560
 105.0000      6539
 110.0000      6433
 115.0000      6607
 120.0000      6394
 125.0000      6848
 130.0000      7140
 135.0000      6938
 140.0000      7869
 145.0000      7524
 150.0000      7946
 155.0000      9696
 160.0000     10587
 165.0000     10507
 170.0000     10865
 175.0000     10414
 180.0000     10656
 185.0000     11817
 190.0000     11287
 195.0000      9452
 200.0000      9286
 205.0000      8857
 210.0000      7646
 215.0000      7451
 220.0000      7237
 225.0000      6497
 230.0000      6033
 235.0000      6654
 240.0000      5784
 245.0000      6936
 250.0000      6373
 255.0000      7256
 260.0000      6949
 265.0000      6857
 270.0000      6722
 275.0000      6891
 280.0000      7958
 285.0000      7335
 290.0000      7542
 295.0000      7391
 300.0000      6944
 305.0000      6850
 310.0000      6770
 315.0000      6817
 320.0000      6712
 325.0000      6753
 330.0000      7236
 335.0000      7289
 340.0000      8270
 345.0000      8668
 350.0000      8742
 355.0000      9629
; (Data for Range number 7)
_DRIVE='PHI'
_STEPTIME=2.000000
_STEPSIZE=5.000000
_STEPMODE='C'
_START=0.000000
_THETA=26.059
_2THETA=52.118
_KHI=30
_PHI=0.000000
_X=0.000000
_Y=0.000000
_Z=0.000000
_DIVERGENCE=3.000000
_ANTISCATTER=3.000000
_DETECTOR=1
; S.C.
_HV=687
_GAIN=80
_LLD=0.690000
_ULD=1.866000
_DETECTORSLIT='unkn'
_AUX1=0.000000
_AUX2=0.000000
_AUX3=0.000000
_TIMESTARTED=1244
_TEMP_RATE=0.000000
_TEMP_DELAY=0.000000
_KV=35
_MA=40
_RANGE_WL=1.788970
_3DPLANE=0
_2THETACOUNTS
   0.0000     14167
   5.0000     13971
  10.0000     13622
  15.0000     12686
  20.0000     12702
  25.0000     11344
  30.0000     10512
  35.0000      9500
  40.0000      8758
  45.0000      7995
  50.0000      7696
  55.0000      7574
  60.0000      7049
  65.0000      6772
  70.0000      7348
  75.0000      7325
  80.0000      6806
  85.0000      6825
  90.0000      6190
  95.0000      5982
 100.0000      6615
 105.0000      6563
 110.0000      6417
 115.0000      6951
 120.0000      7267
 125.0000      8057
 130.0000      8729
 135.0000     10121
 140.0000     10846
 145.0000     11641
 150.0000     12472
 155.0000     13554
 160.0000     14393
 165.0000     15103
 170.0000     14234
 175.0000     15190
 180.0000     14262
 185.0000     14358
 190.0000     14297
 195.0000     13779
 200.0000     12214
 205.0000     11468
 210.0000     11031
 215.0000     10547
 220.0000     10156
 225.0000      8307
 230.0000      8278
 235.0000      7217
 240.0000      6980
 245.0000      6695
 250.0000      6991
 255.0000      6207
 260.0000      5853
 265.0000      6782
 270.0000      6880
 275.0000      6650
 280.0000      6976
 285.0000      7300
 290.0000      7415
 295.0000      8064
 300.0000      8387
 305.0000      8949
 310.0000      8521
 315.0000      8925
 320.0000      8942
 325.0000     10911
 330.0000     11252
 335.0000     12922
 340.0000     12800
 345.0000     14349
 350.0000     14519
 355.0000     14831
; (Data for Range number 8)
_DRIVE='PHI'
_STEPTIME=2.000000
_STEPSIZE=5.000000
_STEPMODE='C'
_START=0.000000
_THETA=26.059
_2THETA=52.118
_KHI=35
_PHI=0.000000
_X=0.000000
_Y=0.000000
_Z=0.000000
_DIVERGENCE=3.000000
_ANTISCATTER=3.000000
_DETECTOR=1
; S.C.
_HV=687
_GAIN=80
_LLD=0.690000
_ULD=1.866000
_DETECTORSLIT='unkn'
_AUX1=0.000000
_AUX2=0.000000
_AUX3=0.000000
_TIMESTARTED=1449
_TEMP_RATE=0.000000
_TEMP_DELAY=0.000000
_KV=35
_MA=40
_RANGE_WL=1.788970
_3DPLANE=0
_2THETACOUNTS
   0.0000     11610
   5.0000     11447
  10.0000     12064
  15.0000     12734
  20.0000     12915
  25.0000     12849
  30.0000     12344
  35.0000     11778
  40.0000     10888
  45.0000     10325
  50.0000      9246
  55.0000      8774
  60.0000      7372
  65.0000      6648
  70.0000      6681
  75.0000      6588
  80.0000      6317
  85.0000      6083
  90.0000      6106
  95.0000      5851
 100.0000      5532
 105.0000      5908
 110.0000      6615
 115.0000      6770
 120.0000      7504
 125.0000      8555
 130.0000      9454
 135.0000     10322
 140.0000     11073
 145.0000     11838
 150.0000     11424
 155.0000     10975
 160.0000     10585
 165.0000     10396
 170.0000     10783
 175.0000      9291
 180.0000      9698
 185.0000      9646
 190.0000      9668
 195.0000      9801
 200.0000     10667
 205.0000     10966
 210.0000     11148
 215.0000     11423
 220.0000     10795
 225.0000      9552
 230.0000      8562
 235.0000      8047
 240.0000      7341
 245.0000      6797
 250.0000      6435
 255.0000      6315
 260.0000      5815
 265.0000      6072
 270.0000      6557
 275.0000      6707
 280.0000      6546
 285.0000      7249
 290.0000      8490
 295.0000      8788
 300.0000      8812
 305.0000      9670
 310.0000      9854
 315.0000     10814
 320.0000     11664
 325.0000     12857
 330.0000     13418
 335.0000     12962
 340.0000     12776
 345.0000     12222
 350.0000     12100
 355.0000     12359
; (Data for Range number 9)
_DRIVE='PHI'
_STEPTIME=2.000000
_STEPSIZE=5.000000
_STEPMODE='C'
_START=0.000000
_THETA=26.059
_2THETA=52.118
_KHI=40
_PHI=0.000000
_X=0.000000
_Y=0.000000
_Z=0.000000
_DIVERGENCE=3.000000
_ANTISCATTER=3.000000
_DETECTOR=1
; S.C.
_HV=687
_GAIN=80
_LLD=0.690000
_ULD=1.866000
_DETECTORSLIT='unkn'
_AUX1=0.000000
_AUX2=0.000000
_AUX3=0.000000
_TIMESTARTED=1654
_TEMP_RATE=0.000000
_TEMP_DELAY=0.000000
_KV=35
_MA=40
_RANGE_WL=1.788970
_3DPLANE=0
_2THETACOUNTS
   0.0000      6537
   5.0000      6771
  10.0000      7264
  15.0000      7620
  20.0000      8873
  25.0000      9864
  30.0000     10844
  35.0000     10866
  40.0000     10886
  45.0000      9835
  50.0000      9278
  55.0000      8715
  60.0000      7867
  65.0000      6965
  70.0000      6527
  75.0000      6261
  80.0000      5988
  85.0000      5629
  90.0000      5561
  95.0000      5747
 100.0000      5849
 105.0000      5958
 110.0000      6848
 115.0000      7012
 120.0000      7686
 125.0000      8238
 130.0000      9436
 135.0000      9087
 140.0000      9592
 145.0000      8878
 150.0000      8292
 155.0000      8077
 160.0000      7646
 165.0000      6829
 170.0000      6641
 175.0000      6429
 180.0000      6580
 185.0000      6207
 190.0000      6619
 195.0000      6881
 200.0000      7633
 205.0000      8075
 210.0000      8693
 215.0000      9688
 220.0000      9430
 225.0000      9207
 230.0000      8389
 235.0000      8189
 240.0000      7422
 245.0000      7121
 250.0000      6585
 255.0000      6259
 260.0000      6176
 265.0000      5816
 270.0000      5727
 275.0000      6026
 280.0000      7012
 285.0000      7224
 290.0000      8383
 295.0000      9064
 300.0000      9525
 305.0000     10427
 310.0000     10556
 315.0000     10838
 320.0000     11170
 325.0000     10353
 330.0000     10131
 335.0000      9079
 340.0000      8681
 345.0000      7698
 350.0000      6588
 355.0000      5791
; (Data for Range number 10)
_DRIVE='PHI'
_STEPTIME=2.000000
_STEPSIZE=5.000000
_STEPMODE='C'
_START=0.000000
_THETA=26.059
_2THETA=52.118
_KHI=45
_PHI=0.000000
_X=0.000000
_Y=0.000000
_Z=0.000000
_DIVERGENCE=3.000000
_ANTISCATTER=3.000000
_DETECTOR=1
; S.C.
_HV=687
_GAIN=80
_LLD=0.690000
_ULD=1.866000
_DETECTORSLIT='unkn'
_AUX1=0.000000
_AUX2=0.000000
_AUX3=0.000000
_TIMESTARTED=1859
_TEMP_RATE=0.000000
_TEMP_DELAY=0.000000
_KV=35
_MA=40
_RANGE_WL=1.788970
_3DPLANE=0
_2THETACOUNTS
   0.0000      4987
   5.0000      5214
  10.0000      5858
  15.0000      6178
  20.0000      7006
  25.0000      6998
  30.0000      8377
  35.0000      8176
  40.0000      8301
  45.0000      8278
  50.0000      7780
  55.0000      7918
  60.0000      6754
  65.0000      6042
  70.0000      5873
  75.0000      5879
  80.0000      5482
  85.0000      5213
  90.0000      4974
  95.0000      5086
 100.0000      5165
 105.0000      6161
 110.0000      6329
 115.0000      6392
 120.0000      7217
 125.0000      7286
 130.0000      7349
 135.0000      7284
 140.0000      7335
 145.0000      7218
 150.0000      7025
 155.0000      6889
 160.0000      6194
 165.0000      6448
 170.0000      5596
 175.0000      5400
 180.0000      5200
 185.0000      5199
 190.0000      5317
 195.0000      5794
 200.0000      6494
 205.0000      6411
 210.0000      7384
 215.0000      7687
 220.0000      7985
 225.0000      8012
 230.0000      7147
 235.0000      7779
 240.0000      7264
 245.0000      7051
 250.0000      6595
 255.0000      5821
 260.0000      5586
 265.0000      5101
 270.0000      5203
 275.0000      5706
 280.0000      6082
 285.0000      7061
 290.0000      7990
 295.0000      8592
 300.0000      9164
 305.0000      8905
 310.0000      9309
 315.0000      8912
 320.0000      8101
 325.0000      8026
 330.0000      7541
 335.0000      7505
 340.0000      6022
 345.0000      5901
 350.0000      5059
 355.0000      5151
; (Data for Range number 11)
_DRIVE='PHI'
_STEPTIME=2.000000
_STEPSIZE=5.000000
_STEPMODE='C'
_START=0.000000
_THETA=26.059
_2THETA=52.118
_KHI=50
_PHI=0.000000
_X=0.000000
_Y=0.000000
_Z=0.000000
_DIVERGENCE=3.000000
_ANTISCATTER=3.000000
_DETECTOR=1
; S.C.
_HV=687
_GAIN=80
_LLD=0.690000
_ULD=1.866000
_DETECTORSLIT='unkn'
_AUX1=0.000000
_AUX2=0.000000
_AUX3=0.000000
_TIMESTARTED=2064
_TEMP_RATE=0.000000
_TEMP_DELAY=0.000000
_KV=35
_MA=40
_RANGE_WL=1.788970
_3DPLANE=0
_2THETACOUNTS
   0.0000      4818
   5.0000      4582
  10.0000      5129
  15.0000      5315
  20.0000      5884
  25.0000      6395
  30.0000      6673
  35.0000      6830
  40.0000      6754
  45.0000      6648
  50.0000      6587
  55.0000      6184
  60.0000      5958
  65.0000      5447
  70.0000      5826
  75.0000      5528
  80.0000      5209
  85.0000      5142
  90.0000      5041
  95.0000      5071
 100.0000      5311
 105.0000      5525
 110.0000      5832
 115.0000      5877
 120.0000      6052
 125.0000      6003
 130.0000      6240
 135.0000      6244
 140.0000      6197
 145.0000      6456
 150.0000      6753
 155.0000      6499
 160.0000      5973
 165.0000      6101
 170.0000      5118
 175.0000      5356
 180.0000      5354
 185.0000      5187
 190.0000      5201
 195.0000      5966
 200.0000      5880
 205.0000      6105
 210.0000      6436
 215.0000      6386
 220.0000      6611
 225.0000      6568
 230.0000      6538
 235.0000      6558
 240.0000      6739
 245.0000      6255
 250.0000      6255
 255.0000      5763
 260.0000      5465
 265.0000      4981
 270.0000      4842
 275.0000      4996
 280.0000      5738
 285.0000      6379
 290.0000      7118
 295.0000      7564
 300.0000      7387
 305.0000      7547
 310.0000      7675
 315.0000      7594
 320.0000      7373
 325.0000      6691
 330.0000      6503
 335.0000      6391
 340.0000      5436
 345.0000      5016
 350.0000      4818
 355.0000      4442
; (Data for Range number 12)
_DRIVE='PHI'
_STEPTIME=2.000000
_STEPSIZE=5.000000
_STEPMODE='C'
_START=0.000000
_THETA=26.059
_2THETA=52.118
_KHI=55
_PHI=0.000000
_X=0.000000
_Y=0.000000
_Z=0.000000
_DIVERGENCE=3.000000
_ANTISCATTER=3.000000
_DETECTOR=1
; S.C.
_HV=687
_GAIN=80
_LLD=0.690000
_ULD=1.866000
_DETECTORSLIT='unkn'
_AUX1=0.000000
_AUX2=0.000000
_AUX3=0.000000
_TIMESTARTED=2269
_TEMP_RATE=0.000000
_TEMP_DELAY=0.000000
_KV=35
_MA=40
_RANGE_WL=1.788970
_3DPLANE=0
_2THETACOUNTS
   0.0000      4251
   5.0000      4562
  10.0000      4676
  15.0000      5171
  20.0000      5133
  25.0000      5857
  30.0000      6239
  35.0000      6045
  40.0000      6132
  45.0000      5868
  50.0000      5591
  55.0000      5412
  60.0000      5165
  65.0000      5033
  70.0000      4868
  75.0000      5247
  80.0000      4867
  85.0000      5013
  90.0000      4750
  95.0000      5033
 100.0000      5213
 105.0000      5087
 110.0000      5335
 115.0000      5182
 120.0000      5174
 125.0000      5832
 130.0000      5499
 135.0000      5461
 140.0000      5958
 145.0000      6144
 150.0000      6016
 155.0000      5815
 160.0000      5668
 165.0000      5485
 170.0000      5030
 175.0000      4497
 180.0000      4762
 185.0000      4781
 190.0000      4909
 195.0000      5303
 200.0000      5474
 205.0000      5916
 210.0000      6165
 215.0000      6455
 220.0000      6127
 225.0000      6037
 230.0000      5882
 235.0000      5906
 240.0000      5652
 245.0000      5605
 250.0000      5763
 255.0000      5481
 260.0000      5088
 265.0000      4947
 270.0000      4650
 275.0000      4939
 280.0000      5710
 285.0000      5734
 290.0000      5993
 295.0000      6567
 300.0000      6629
 305.0000      6355
 310.0000      6649
 315.0000      6691
 320.0000      6341
 325.0000      6299
 330.0000      5909
 335.0000      5648
 340.0000      4716
 345.0000      4433
 350.0000      4383
 355.0000      4060
; (Data for Range number 13)
_DRIVE='PHI'
_STEPTIME=2.000000
_STEPSIZE=5.000000
_STEPMODE='C'
_START=0.000000
_THETA=26.059
_2THETA=52.118
_KHI=60
_PHI=0.000000
_X=0.000000
_Y=0.000000
_Z=0.000000
_DIVERGENCE=3.000000
_ANTISCATTER=3.000000
_DETECTOR=1
; S.C.
_HV=687
_GAIN=80
_LLD=0.690000
_ULD=1.866000
_DETECTORSLIT='unkn'
_AUX1=0.000000
_AUX2=0.000000
_AUX3=0.000000
_TIMESTARTED=2474
_TEMP_RATE=0.000000
_TEMP_DELAY=0.000000
_KV=35
_MA=40
_RANGE_WL=1.788970
_3DPLANE=0
_2THETACOUNTS
   0.0000      3850
   5.0000      3816
  10.0000      4094
  15.0000      4599
  20.0000      4838
  25.0000      5009
  30.0000      5414
  35.0000      5453
  40.0000      5245
  45.0000      5187
  50.0000      5067
  55.0000      5023
  60.0000      4879
  65.0000      4809
  70.0000      4930
  75.0000      5049
  80.0000      5144
  85.0000      5163
  90.0000      4967
  95.0000      5139
 100.0000      5159
 105.0000      5044
 110.0000      4992
 115.0000      4645
 120.0000      4628
 125.0000      4941
 130.0000      5022
 135.0000      5141
 140.0000      5477
 145.0000      5736
 150.0000      5347
 155.0000      5114
 160.0000      4951
 165.0000      4844
 170.0000      4319
 175.0000      4134
 180.0000      4258
 185.0000      4207
 190.0000      4263
 195.0000      4821
 200.0000      5099
 205.0000      5243
 210.0000      5626
 215.0000      5672
 220.0000      5572
 225.0000      5530
 230.0000      5403
 235.0000      5278
 240.0000      5340
 245.0000      5295
 250.0000      5387
 255.0000      5328
 260.0000      5399
 265.0000      4717
 270.0000      4844
 275.0000      4872
 280.0000      5207
 285.0000      5588
 290.0000      5883
 295.0000      5948
 300.0000      5898
 305.0000      5534
 310.0000      5585
 315.0000      5701
 320.0000      5514
 325.0000      5279
 330.0000      5182
 335.0000      4824
 340.0000      4066
 345.0000      4002
 350.0000      4004
 355.0000      3915
; (Data for Range number 14)
_DRIVE='PHI'
_STEPTIME=2.000000
_STEPSIZE=5.000000
_STEPMODE='C'
_START=0.000000
_THETA=26.059
_2THETA=52.118
_KHI=65
_PHI=0.000000
_X=0.000000
_Y=0.000000
_Z=0.000000
_DIVERGENCE=3.000000
_ANTISCATTER=3.000000
_DETECTOR=1
; S.C.
_HV=687
_GAIN=80
_LLD=0.690000
_ULD=1.866000
_DETECTORSLIT='unkn'
_AUX1=0.000000
_AUX2=0.000000
_AUX3=0.000000
_TIMESTARTED=2679
_TEMP_RATE=0.000000
_TEMP_DELAY=0.000000
_KV=35
_MA=40
_RANGE_WL=1.788970
_3DPLANE=0
_2THETACOUNTS
   0.0000      3406
   5.0000      3607
  10.0000      3778
  15.0000      3843
  20.0000      4350
  25.0000      4600
  30.0000      4951
  35.0000      4924
  40.0000      4698
  45.0000      4416
  50.0000      4527
  55.0000      4563
  60.0000      4413
  65.0000      4483
  70.0000      4728
  75.0000      4812
  80.0000      5204
  85.0000      5041
  90.0000      5088
  95.0000      4896
 100.0000      4985
 105.0000      4667
 110.0000      4608
 115.0000      4499
 120.0000      4305
 125.0000      4498
 130.0000      4603
 135.0000      4741
 140.0000      5076
 145.0000      5013
 150.0000      4881
 155.0000      4871
 160.0000      4566
 165.0000      4392
 170.0000      3973
 175.0000      3811
 180.0000      3769
 185.0000      3944
 190.0000      4042
 195.0000      4277
 200.0000      4450
 205.0000      4511
 210.0000      4900
 215.0000      5021
 220.0000      5150
 225.0000      5132
 230.0000      5105
 235.0000      4884
 240.0000      4836
 245.0000      4813
 250.0000      4953
 255.0000      4968
 260.0000      4723
 265.0000      4614
 270.0000      4589
 275.0000      4639
 280.0000      4961
 285.0000      5236
 290.0000      5326
 295.0000      5355
 300.0000      5076
 305.0000      4825
 310.0000      4988
 315.0000      4900
 320.0000      4873
 325.0000      4643
 330.0000      4519
 335.0000      4074
 340.0000      3767
 345.0000      3503
 350.0000      3673
 355.0000      3567
; (Data for Range number 15)
_DRIVE='PHI'
_STEPTIME=2.000000
_STEPSIZE=5.000000
_STEPMODE='C'
_START=0.000000
_THETA=26.059
_2THETA=52.118
_KHI=70
_PHI=0.000000
_X=0.000000
_Y=0.000000
_Z=0.000000
_DIVERGENCE=3.000000
_ANTISCATTER=3.000000
_DETECTOR=1
; S.C.
_HV=687
_GAIN=80
_LLD=0.690000
_ULD=1.866000
_DETECTORSLIT='unkn'
_AUX1=0.000000
_AUX2=0.000000
_AUX3=0.000000
_TIMESTARTED=2884
_TEMP_RATE=0.000000
_TEMP_DELAY=0.000000
_KV=35
_MA=40
_RANGE_WL=1.788970
_3DPLANE=0
_2THETACOUNTS
   0.0000      3299
   5.0000      3422
  10.0000      3429
  15.0000      3480
  20.0000      3872
  25.0000      4210
  30.0000      4408
  35.0000      4500
  40.0000      4335
  45.0000      4158
  50.0000      4054
  55.0000      4278
  60.0000      3966
  65.0000      4075
  70.0000      4059
  75.0000      4425
  80.0000      4414
  85.0000      4644
  90.0000      4435
  95.0000      4543
 100.0000      4474
 105.0000      4461
 110.0000      4088
 115.0000      3894
 120.0000      4033
 125.0000      4186
 130.0000      3990
 135.0000      4245
 140.0000      4274
 145.0000      4473
 150.0000      4443
 155.0000      4323
 160.0000      3992
 165.0000      3867
 170.0000      3589
 175.0000      3470
 180.0000      3574
 185.0000      3750
 190.0000      3663
 195.0000      3727
 200.0000      3974
 205.0000      3976
 210.0000      4261
 215.0000      4446
 220.0000      4334
 225.0000      4225
 230.0000      4491
 235.0000      4230
 240.0000      4122
 245.0000      4226
 250.0000      4345
 255.0000      4399
 260.0000      4474
 265.0000      4297
 270.0000      4311
 275.0000      4616
 280.0000      4857
 285.0000      4848
 290.0000      4992
 295.0000      4874
 300.0000      4580
 305.0000      4325
 310.0000      4432
 315.0000      4266
 320.0000      4145
 325.0000      4171
 330.0000      3789
 335.0000      3694
 340.0000      3457
 345.0000      3296
 350.0000      3385
 355.0000      3438
; (Data for Range number 16)
_DRIVE='PHI'
_STEPTIME=2.000000
_STEPSIZE=5.000000
_STEPMODE='C'
_START=0.000000
_THETA=26.059
_2THETA=52.118
_KHI=75
_PHI=0.000000
_X=0.000000
_Y=0.000000
_Z=0.000000
_DIVERGENCE=3.000000
_ANTISCATTER=3.000000
_DETECTOR=1
; S.C.
_HV=687
_GAIN=80
_LLD=0.690000
_ULD=1.866000
_DETECTORSLIT='unkn'
_AUX1=0.000000
_AUX2=0.000000
_AUX3=0.000000
_TIMESTARTED=3089
_TEMP_RATE=0.000000
_TEMP_DELAY=0.000000
_KV=35
_MA=40
_RANGE_WL=1.788970
_3DPLANE=0
_2THETACOUNTS
   0.0000      3250
   5.0000      3219
  10.0000      3474
  15.0000      3511
  20.0000      3832
  25.0000      4041
  30.0000      4127
  35.0000      4241
  40.0000      3855
  45.0000      3909
  50.0000      3723
  55.0000      3604
  60.0000      3469
  65.0000      3539
  70.0000      3698
  75.0000      3714
  80.0000      3770
  85.0000      3892
  90.0000      4037
  95.0000      3889
 100.0000      3813
 105.0000      3797
 110.0000      3585
 115.0000      3394
 120.0000      3442
 125.0000      3546
 130.0000      3615
 135.0000      3648
 140.0000      3654
 145.0000      3890
 150.0000      3834
 155.0000      3747
 160.0000      3541
 165.0000      3499
 170.0000      3338
 175.0000      3212
 180.0000      3257
 185.0000      3307
 190.0000      3198
 195.0000      3354
 200.0000      3552
 205.0000      3546
 210.0000      3724
 215.0000      3616
 220.0000      3595
 225.0000      3629
 230.0000      3755
 235.0000      3501
 240.0000      3525
 245.0000      3456
 250.0000      3517
 255.0000      3699
 260.0000      3502
 265.0000      3780
 270.0000      3704
 275.0000      4063
 280.0000      4138
 285.0000      4414
 290.0000      4393
 295.0000      4263
 300.0000      4024
 305.0000      3840
 310.0000      3688
 315.0000      3596
 320.0000      3595
 325.0000      3496
 330.0000      3360
 335.0000      3298
 340.0000      3189
 345.0000      3117
 350.0000      3329
 355.0000      3189
; (Data for Range number 17)
_DRIVE='PHI'
_STEPTIME=2.000000
_STEPSIZE=5.000000
_STEPMODE='C'
_START=0.000000
_THETA=26.059
_2THETA=52.118
_KHI=80
_PHI=0.000000
_X=0.000000
_Y=0.000000
_Z=0.000000
_DIVERGENCE=3.000000
_ANTISCATTER=3.000000
_DETECTOR=1
; S.C.
_HV=687
_GAIN=80
_LLD=0.690000
_ULD=1.866000
_DETECTORSLIT='unkn'
_AUX1=0.000000
_AUX2=0.000000
_AUX3=0.000000
_TIMESTARTED=3294
_TEMP_RATE=0.000000
_TEMP_DELAY=0.000000
_KV=35
_MA=40
_RANGE_WL=1.788970
_3DPLANE=0
_2THETACOUNTS
   0.0000      2891
   5.0000      3097
  10.0000      3071
  15.0000      3226
  20.0000      3411
  25.0000      3430
  30.0000      3496
  35.0000      3233
  40.0000      2963
  45.0000      2776
  50.0000      2769
  55.0000      2775
  60.0000      2557
  65.0000      2706
  70.0000      2551
  75.0000      2558
  80.0000      2644
  85.0000      2672
  90.0000      2703
  95.0000      2649
 100.0000      2631
 105.0000      2500
 110.0000      2638
 115.0000      2614
 120.0000      2556
 125.0000      2682
 130.0000      2586
 135.0000      2677
 140.0000      2684
 145.0000      2803
 150.0000      2877
 155.0000      2719
 160.0000      2710
 165.0000      2682
 170.0000      2661
 175.0000      2707
 180.0000      2634
 185.0000      2678
 190.0000      2762
 195.0000      2819
 200.0000      2851
 205.0000      2776
 210.0000      2625
 215.0000      2534
 220.0000      2404
 225.0000      2413
 230.0000      2515
 235.0000      2459
 240.0000      2458
 245.0000      2584
 250.0000      2541
 255.0000      2603
 260.0000      2671
 265.0000      2719
 270.0000      2806
 275.0000      3045
 280.0000      3175
 285.0000      3469
 290.0000      3360
 295.0000      3232
 300.0000      3139
 305.0000      2924
 310.0000      2738
 315.0000      2679
 320.0000      2661
 325.0000      2643
 330.0000      2809
 335.0000      2810
 340.0000      2709
 345.0000      2678
 350.0000      2762
 355.0000      2792
; (Data for Range number 18)
_DRIVE='PHI'
_STEPTIME=20
_STEPSIZE=5.000000
_STEPMODE='S'
_START=0.000000
_THETA=23.5
_2THETA=47
_KHI=0.000000
_PHI=0.000000
_X=0.000000
_Y=0.000000
_Z=0.000000
_DIVERGENCE=3.000000
_ANTISCATTER=3.000000
_DETECTOR=1
; S.C.
_HV=687
_GAIN=80
_LLD=0.690000
_ULD=1.866000
_DETECTORSLIT='unkn'
_AUX1=0.000000
_AUX2=0.000000
_AUX3=0.000000
_TIMESTARTED=3497
_TEMP_RATE=0.000000
_TEMP_DELAY=0.000000
_KV=35
_MA=40
_RANGE_WL=1.788970
_3DPLANE=0
_2THETACOUNTS
   0.0000     10550
; (Data for Range number 19)
_DRIVE='PHI'
_STEPTIME=20
_STEPSIZE=5.000000
_STEPMODE='S'
_START=0.000000
_THETA=23.5
_2THETA=47
_KHI=5.000000
_PHI=0.000000
_X=0.000000
_Y=0.000000
_Z=0.000000
_DIVERGENCE=3.000000
_ANTISCATTER=3.000000
_DETECTOR=1
; S.C.
_HV=687
_GAIN=80
_LLD=0.690000
_ULD=1.866000
_DETECTORSLIT='unkn'
_AUX1=0.000000
_AUX2=0.000000
_AUX3=0.000000
_TIMESTARTED=3521
_TEMP_RATE=0.000000
_TEMP_DELAY=0.000000
_KV=35
_MA=40
_RANGE_WL=1.788970
_3DPLANE=0
_2THETACOUNTS
   0.0000     10684
; (Data for Range number 20)
_DRIVE='PHI'
_STEPTIME=20
_STEPSIZE=5.000000
_STEPMODE='S'
_START=0.000000
_THETA=23.5
_2THETA=47
_KHI=10
_PHI=0.000000
_X=0.000000
_Y=0.000000
_Z=0.000000
_DIVERGENCE=3.000000
_ANTISCATTER=3.000000
_DETECTOR=1
; S.C.
_HV=687
_GAIN=80
_LLD=0.690000
_ULD=1.866000
_DETECTORSLIT='unkn'
_AUX1=0.000000
_AUX2=0.000000
_AUX3=0.000000
_TIMESTARTED=3546
_TEMP_RATE=0.000000
_TEMP_DELAY=0.000000
_KV=35
_MA=40
_RANGE_WL=1.788970
_3DPLANE=0
_2THETACOUNTS
   0.0000     10700
; (Data for Range number 21)
_DRIVE='PHI'
_STEPTIME=20
_STEPSIZE=5.000000
_STEPMODE='S'
_START=0.000000
_THETA=23.5
_2THETA=47
_KHI=15
_PHI=0.000000
_X=0.000000
_Y=0.000000
_Z=0.000000
_DIVERGENCE=3.000000
_ANTISCATTER=3.000000
_DETECTOR=1
; S.C.
_HV=687
_GAIN=80
_LLD=0.690000
_ULD=1.866000
_DETECTORSLIT='unkn'
_AUX1=0.000000
_AUX2=0.000000
_AUX3=0.000000
_TIMESTARTED=3571
_TEMP_RATE=0.000000
_TEMP_DELAY=0.000000
_KV=35
_MA=40
_RANGE_WL=1.788970
_3DPLANE=0
_2THETACOUNTS
   0.0000     10640
; (Data for Range number 22)
_DRIVE='PHI'
_STEPTIME=20
_STEPSIZE=5.000000
_STEPMODE='S'
_START=0.000000
_THETA=23.5
_2THETA=47
_KHI=20
_PHI=0.000000
_X=0.000000
_Y=0.000000
_Z=0.000000
_DIVERGENCE=3.000000
_ANTISCATTER=3.000000
_DETECTOR=1
; S.C.
_HV=687
_GAIN=80
_LLD=0.690000
_ULD=1.866000
_DETECTORSLIT='unkn'
_AUX1=0.000000
_AUX2=0.000000
_AUX3=0.000000
_TIMESTARTED=3596
_TEMP_RATE=0.000000
_TEMP_DELAY=0.000000
_KV=35
_MA=40
_RANGE_WL=1.788970
_3DPLANE=0
_2THETACOUNTS
   0.0000     10612
; (Data for Range number 23)
_DRIVE='PHI'
_STEPTIME=20
_STEPSIZE=5.000000
_STEPMODE='S'
_START=0.000000
_THETA=23.5
_2THETA=47
_KHI=25
_PHI=0.000000
_X=0.000000
_Y=0.000000
_Z=0.000000
_DIVERGENCE=3.000000
_ANTISCATTER=3.000000
_DETECTOR=1
; S.C.
_HV=687
_GAIN=80
_LLD=0.690000
_ULD=1.866000
_DETECTORSLIT='unkn'
_AUX1=0.000000
_AUX2=0.000000
_AUX3=0.000000
_TIMESTARTED=3621
_TEMP_RATE=0.000000
_TEMP_DELAY=0.000000
_KV=35
_MA=40
_RANGE_WL=1.788970
_3DPLANE=0
_2THETACOUNTS
   0.0000     10655
; (Data for Range number 24)
_DRIVE='PHI'
_STEPTIME=20
_STEPSIZE=5.000000
_STEPMODE='S'
_START=0.000000
_THETA=23.5
_2THETA=47
_KHI=30
_PHI=0.000000
_X=0.000000
_Y=0.000000
_Z=0.000000
_DIVERGENCE=3.000000
_ANTISCATTER=3.000000
_DETECTOR=1
; S.C.
_HV=687
_GAIN=80
_LLD=0.690000
_ULD=1.866000
_DETECTORSLIT='unkn'
_AUX1=0.000000
_AUX2=0.000000
_AUX3=0.000000
_TIMESTARTED=3645
_TEMP_RATE=0.000000
_TEMP_DELAY=0.000000
_KV=35
_MA=40
_RANGE_WL=1.788970
_3DPLANE=0
_2THETACOUNTS
   0.0000     10590
; (Data for Range number 25)
_DRIVE='PHI'
_STEPTIME=20
_STEPSIZE=5.000000
_STEPMODE='S'
_START=0.000000
_THETA=23.5
_2THETA=47
_KHI=35
_PHI=0.000000
_X=0.000000
_Y=0.000000
_Z=0.000000
_DIVERGENCE=3.000000
_ANTISCATTER=3.000000
_DETECTOR=1
; S.C.
_HV=687
_GAIN=80
_LLD=0.690000
_ULD=1.866000
_DETECTORSLIT='unkn'
_AUX1=0.000000
_AUX2=0.000000
_AUX3=0.000000
_TIMESTARTED=3670
_TEMP_RATE=0.000000
_TEMP_DELAY=0.000000
_KV=35
_MA=40
_RANGE_WL=1.788970
_3DPLANE=0
_2THETACOUNTS
   0.0000     10483
; (Data for Range number 26)
_DRIVE='PHI'
_STEPTIME=20
_STEPSIZE=5.000000
_STEPMODE='S'
_START=0.000000
_THETA=23.5
_2THETA=47
_KHI=40
_PHI=0.000000
_X=0.000000
_Y=0.000000
_Z=0.000000
_DIVERGENCE=3.000000
_ANTISCATTER=3.000000
_DETECTOR=1
; S.C.
_HV=687
_GAIN=80
_LLD=0.690000
_ULD=1.866000
_DETECTORSLIT='unkn'
_AUX1=0.000000
_AUX2=0.000000
_AUX3=0.000000
_TIMESTARTED=3695
_TEMP_RATE=0.000000
_TEMP_DELAY=0.000000
_KV=35
_MA=40
_RANGE_WL=1.788970
_3DPLANE=0
_2THETACOUNTS
   0.0000     10489
; (Data for Range number 27)
_DRIVE='PHI'
_STEPTIME=20
_STEPSIZE=5.000000
_STEPMODE='S'
_START=0.000000
_THETA=23.5
_2THETA=47
_KHI=45
_PHI=0.000000
_X=0.000000
_Y=0.000000
_Z=0.000000
_DIVERGENCE=3.000000
_ANTISCATTER=3.000000
_DETECTOR=1
; S.C.
_HV=687
_GAIN=80
_LLD=0.690000
_ULD=1.866000
_DETECTORSLIT='unkn'
_AUX1=0.000000
_AUX2=0.000000
_AUX3=0.000000
_TIMESTARTED=3720
_TEMP_RATE=0.000000
_TEMP_DELAY=0.000000
_KV=35
_MA=40
_RANGE_WL=1.788970
_3DPLANE=0
_2THETACOUNTS
   0.0000     10448
; (Data for Range number 28)
_DRIVE='PHI'
_STEPTIME=20
_STEPSIZE=5.000000
_STEPMODE='S'
_START=0.000000
_THETA=23.5
_2THETA=47
_KHI=50
_PHI=0.000000
_X=0.000000
_Y=0.000000
_Z=0.000000
_DIVERGENCE=3.000000
_ANTISCATTER=3.000000
_DETECTOR=1
; S.C.
_HV=687
_GAIN=80
_LLD=0.690000
_ULD=1.866000
_DETECTORSLIT='unkn'
_AUX1=0.000000
_AUX2=0.000000
_AUX3=0.000000
_TIMESTARTED=3744
_TEMP_RATE=0.000000
_TEMP_DELAY=0.000000
_KV=35
_MA=40
_RANGE_WL=1.788970
_3DPLANE=0
_2THETACOUNTS
   0.0000     10473
; (Data for Range number 29)
_DRIVE='PHI'
_STEPTIME=20
_STEPSIZE=5.000000
_STEPMODE='S'
_START=0.000000
_THETA=23.5
_2THETA=47
_KHI=55
_PHI=0.000000
_X=0.000000
_Y=0.000000
_Z=0.000000
_DIVERGENCE=3.000000
_ANTISCATTER=3.000000
_DETECTOR=1
; S.C.
_HV=687
_GAIN=80
_LLD=0.690000
_ULD=1.866000
_DETECTORSLIT='unkn'
_AUX1=0.000000
_AUX2=0.000000
_AUX3=0.000000
_TIMESTARTED=3768
_TEMP_RATE=0.000000
_TEMP_DELAY=0.000000
_KV=35
_MA=40
_RANGE_WL=1.788970
_3DPLANE=0
_2THETACOUNTS
   0.0000     10493
; (Data for Range number 30)
_DRIVE='PHI'
_STEPTIME=20
_STEPSIZE=5.000000
_STEPMODE='S'
_START=0.000000
_THETA=23.5
_2THETA=47
_KHI=60
_PHI=0.000000
_X=0.000000
_Y=0.000000
_Z=0.000000
_DIVERGENCE=3.000000
_ANTISCATTER=3.000000
_DETECTOR=1
; S.C.
_HV=687
_GAIN=80
_LLD=0.690000
_ULD=1.866000
_DETECTORSLIT='unkn'
_AUX1=0.000000
_AUX2=0.000000
_AUX3=0.000000
_TIMESTARTED=3794
_TEMP_RATE=0.000000
_TEMP_DELAY=0.000000
_KV=35
_MA=40
_RANGE_WL=1.788970
_3DPLANE=0
_2THETACOUNTS
   0.0000     10463
; (Data for Range number 31)
_DRIVE='PHI'
_STEPTIME=20
_STEPSIZE=5.000000
_STEPMODE='S'
_START=0.000000
_THETA=23.5
_2THETA=47
_KHI=65
_PHI=0.000000
_X=0.000000
_Y=0.000000
_Z=0.000000
_DIVERGENCE=3.000000
_ANTISCATTER=3.000000
_DETECTOR=1
; S.C.
_HV=687
_GAIN=80
[...]
  80.0000      1874
  85.0000      1814
  90.0000      1925
  95.0000      1837
 100.0000      1809
 105.0000      1876
 110.0000      1997
 115.0000      1974
 120.0000      1910
 125.0000      2116
 130.0000      2035
 135.0000      1889
 140.0000      1905
 145.0000      1853
 150.0000      1881
 155.0000      1737
 160.0000      1745
 165.0000      1783
 170.0000      1843
 175.0000      1801
 180.0000      1727
 185.0000      1775
 190.0000      1789
 195.0000      1793
 200.0000      1952
 205.0000      1985
 210.0000      2045
 215.0000      2064
 220.0000      2116
 225.0000      2062
 230.0000      2152
 235.0000      2025
 240.0000      1985
 245.0000      1922
 250.0000      1956
 255.0000      1999
 260.0000      2002
 265.0000      1984
 270.0000      1948
 275.0000      1976
 280.0000      2072
 285.0000      2015
 290.0000      2108
 295.0000      2098
 300.0000      2055
 305.0000      2066
 310.0000      2072
 315.0000      2106
 320.0000      1936
 325.0000      1959
 330.0000      1795
 335.0000      1877
 340.0000      1723
 345.0000      1678
 350.0000      1751
 355.0000      1683
; (Data for Range number 119)
_DRIVE='PHI'
_STEPTIME=2.000000
_STEPSIZE=5.000000
_STEPMODE='C'
_START=0.000000
_THETA=49.755
_2THETA=99.51
_KHI=80
_PHI=0.000000
_X=0.000000
_Y=0.000000
_Z=0.000000
_DIVERGENCE=3.000000
_ANTISCATTER=3.000000
_DETECTOR=1
; S.C.
_HV=687
_GAIN=80
_LLD=0.690000
_ULD=1.866000
_DETECTORSLIT='unkn'
_AUX1=0.000000
_AUX2=0.000000
_AUX3=0.000000
_TIMESTARTED=12019
_TEMP_RATE=0.000000
_TEMP_DELAY=0.000000
_KV=35
_MA=40
_RANGE_WL=1.788970
_3DPLANE=0
_2THETACOUNTS
   0.0000      1583
   5.0000      1659
  10.0000      1687
  15.0000      1619
  20.0000      1700
  25.0000      1629
  30.0000      1638
  35.0000      1597
  40.0000      1663
  45.0000      1775
  50.0000      1682
  55.0000      1716
  60.0000      1677
  65.0000      1683
  70.0000      1617
  75.0000      1710
  80.0000      1649
  85.0000      1600
  90.0000      1613
  95.0000      1681
 100.0000      1668
 105.0000      1662
 110.0000      1588
 115.0000      1695
 120.0000      1673
 125.0000      1628
 130.0000      1674
 135.0000      1608
 140.0000      1581
 145.0000      1576
 150.0000      1504
 155.0000      1530
 160.0000      1439
 165.0000      1556
 170.0000      1571
 175.0000      1599
 180.0000      1548
 185.0000      1600
 190.0000      1532
 195.0000      1522
 200.0000      1658
 205.0000      1651
 210.0000      1629
 215.0000      1697
 220.0000      1760
 225.0000      1713
 230.0000      1678
 235.0000      1631
 240.0000      1625
 245.0000      1597
 250.0000      1685
 255.0000      1663
 260.0000      1709
 265.0000      1721
 270.0000      1642
 275.0000      1615
 280.0000      1736
 285.0000      1750
 290.0000      1800
 295.0000      1759
 300.0000      1714
 305.0000      1770
 310.0000      1730
 315.0000      1744
 320.0000      1643
 325.0000      1578
 330.0000      1526
 335.0000      1621
 340.0000      1524
 345.0000      1502
 350.0000      1608
 355.0000      1608
; (Data for Range number 120)
_DRIVE='PHI'
_STEPTIME=20
_STEPSIZE=5.000000
_STEPMODE='S'
_START=0.000000
_THETA=47.5
_2THETA=95
_KHI=0.000000
_PHI=0.000000
_X=0.000000
_Y=0.000000
_Z=0.000000
_DIVERGENCE=3.000000
_ANTISCATTER=3.000000
_DETECTOR=1
; S.C.
_HV=687
_GAIN=80
_LLD=0.690000
_ULD=1.866000
_DETECTORSLIT='unkn'
_AUX1=0.000000
_AUX2=0.000000
_AUX3=0.000000
_TIMESTARTED=12221
_TEMP_RATE=0.000000
_TEMP_DELAY=0.000000
_KV=35
_MA=40
_RANGE_WL=1.788970
_3DPLANE=0
_2THETACOUNTS
   0.0000     10601
; (Data for Range number 121)
_DRIVE='PHI'
_STEPTIME=20
_STEPSIZE=5.000000
_STEPMODE='S'
_START=0.000000
_THETA=47.5
_2THETA=95
_KHI=5.000000
_PHI=0.000000
_X=0.000000
_Y=0.000000
_Z=0.000000
_DIVERGENCE=3.000000
_ANTISCATTER=3.000000
_DETECTOR=1
; S.C.
_HV=687
_GAIN=80
_LLD=0.690000
_ULD=1.866000
_DETECTORSLIT='unkn'
_AUX1=0.000000
_AUX2=0.000000
_AUX3=0.000000
_TIMESTARTED=12246
_TEMP_RATE=0.000000
_TEMP_DELAY=0.000000
_KV=35
_MA=40
_RANGE_WL=1.788970
_3DPLANE=0
_2THETACOUNTS
   0.0000     10526
; (Data for Range number 122)
_DRIVE='PHI'
_STEPTIME=20
_STEPSIZE=5.000000
_STEPMODE='S'
_START=0.000000
_THETA=47.5
_2THETA=95
_KHI=10
_PHI=0.000000
_X=0.000000
_Y=0.000000
_Z=0.000000
_DIVERGENCE=3.000000
_ANTISCATTER=3.000000
_DETECTOR=1
; S.C.
_HV=687
_GAIN=80
_LLD=0.690000
_ULD=1.866000
_DETECTORSLIT='unkn'
_AUX1=0.000000
_AUX2=0.000000
_AUX3=0.000000
_TIMESTARTED=12271
_TEMP_RATE=0.000000
_TEMP_DELAY=0.000000
_KV=35
_MA=40
_RANGE_WL=1.788970
_3DPLANE=0
_2THETACOUNTS
   0.0000     10421
; (Data for Range number 123)
_DRIVE='PHI'
_STEPTIME=20
_STEPSIZE=5.000000
_STEPMODE='S'
_START=0.000000
_THETA=47.5
_2THETA=95
_KHI=15
_PHI=0.000000
_X=0.000000
_Y=0.000000
_Z=0.000000
_DIVERGENCE=3.000000
_ANTISCATTER=3.000000
_DETECTOR=1
; S.C.
_HV=687
_GAIN=80
_LLD=0.690000
_ULD=1.866000
_DETECTORSLIT='unkn'
_AUX1=0.000000
_AUX2=0.000000
_AUX3=0.000000
_TIMESTARTED=12296
_TEMP_RATE=0.000000
_TEMP_DELAY=0.000000
_KV=35
_MA=40
_RANGE_WL=1.788970
_3DPLANE=0
_2THETACOUNTS
   0.0000     10522
; (Data for Range number 124)
_DRIVE='PHI'
_STEPTIME=20
_STEPSIZE=5.000000
_STEPMODE='S'
_START=0.000000
_THETA=47.5
_2THETA=95
_KHI=20
_PHI=0.000000
_X=0.000000
_Y=0.000000
_Z=0.000000
_DIVERGENCE=3.000000
_ANTISCATTER=3.000000
_DETECTOR=1
; S.C.
_HV=687
_GAIN=80
_LLD=0.690000
_ULD=1.866000
_DETECTORSLIT='unkn'
_AUX1=0.000000
_AUX2=0.000000
_AUX3=0.000000
_TIMESTARTED=12321
_TEMP_RATE=0.000000
_TEMP_DELAY=0.000000
_KV=35
_MA=40
_RANGE_WL=1.788970
_3DPLANE=0
_2THETACOUNTS
   0.0000     10546
; (Data for Range number 125)
_DRIVE='PHI'
_STEPTIME=20
_STEPSIZE=5.000000
_STEPMODE='S'
_START=0.000000
_THETA=47.5
_2THETA=95
_KHI=25
_PHI=0.000000
_X=0.000000
_Y=0.000000
_Z=0.000000
_DIVERGENCE=3.000000
_ANTISCATTER=3.000000
_DETECTOR=1
; S.C.
_HV=687
_GAIN=80
_LLD=0.690000
_ULD=1.866000
_DETECTORSLIT='unkn'
_AUX1=0.000000
_AUX2=0.000000
_AUX3=0.000000
_TIMESTARTED=12346
_TEMP_RATE=0.000000
_TEMP_DELAY=0.000000
_KV=35
_MA=40
_RANGE_WL=1.788970
_3DPLANE=0
_2THETACOUNTS
   0.0000     10510
; (Data for Range number 126)
_DRIVE='PHI'
_STEPTIME=20
_STEPSIZE=5.000000
_STEPMODE='S'
_START=0.000000
_THETA=47.5
_2THETA=95
_KHI=30
_PHI=0.000000
_X=0.000000
_Y=0.000000
_Z=0.000000
_DIVERGENCE=3.000000
_ANTISCATTER=3.000000
_DETECTOR=1
; S.C.
_HV=687
_GAIN=80
_LLD=0.690000
_ULD=1.866000
_DETECTORSLIT='unkn'
_AUX1=0.000000
_AUX2=0.000000
_AUX3=0.000000
_TIMESTARTED=12371
_TEMP_RATE=0.000000
_TEMP_DELAY=0.000000
_KV=35
_MA=40
_RANGE_WL=1.788970
_3DPLANE=0
_2THETACOUNTS
   0.0000     10427
; (Data for Range number 127)
_DRIVE='PHI'
_STEPTIME=20
_STEPSIZE=5.000000
_STEPMODE='S'
_START=0.000000
_THETA=47.5
_2THETA=95
_KHI=35
_PHI=0.000000
_X=0.000000
_Y=0.000000
_Z=0.000000
_DIVERGENCE=3.000000
_ANTISCATTER=3.000000
_DETECTOR=1
; S.C.
_HV=687
_GAIN=80
_LLD=0.690000
_ULD=1.866000
_DETECTORSLIT='unkn'
_AUX1=0.000000
_AUX2=0.000000
_AUX3=0.000000
_TIMESTARTED=12395
_TEMP_RATE=0.000000
_TEMP_DELAY=0.000000
_KV=35
_MA=40
_RANGE_WL=1.788970
_3DPLANE=0
_2THETACOUNTS
   0.0000     10269
; (Data for Range number 128)
_DRIVE='PHI'
_STEPTIME=20
_STEPSIZE=5.000000
_STEPMODE='S'
_START=0.000000
_THETA=47.5
_2THETA=95
_KHI=40
_PHI=0.000000
_X=0.000000
_Y=0.000000
_Z=0.000000
_DIVERGENCE=3.000000
_ANTISCATTER=3.000000
_DETECTOR=1
; S.C.
_HV=687
_GAIN=80
_LLD=0.690000
_ULD=1.866000
_DETECTORSLIT='unkn'
_AUX1=0.000000
_AUX2=0.000000
_AUX3=0.000000
_TIMESTARTED=12420
_TEMP_RATE=0.000000
_TEMP_DELAY=0.000000
_KV=35
_MA=40
_RANGE_WL=1.788970
_3DPLANE=0
_2THETACOUNTS
   0.0000     10165
; (Data for Range number 129)
_DRIVE='PHI'
_STEPTIME=20
_STEPSIZE=5.000000
_STEPMODE='S'
_START=0.000000
_THETA=47.5
_2THETA=95
_KHI=45
_PHI=0.000000
_X=0.000000
_Y=0.000000
_Z=0.000000
_DIVERGENCE=3.000000
_ANTISCATTER=3.000000
_DETECTOR=1
; S.C.
_HV=687
_GAIN=80
_LLD=0.690000
_ULD=1.866000
_DETECTORSLIT='unkn'
_AUX1=0.000000
_AUX2=0.000000
_AUX3=0.000000
_TIMESTARTED=12445
_TEMP_RATE=0.000000
_TEMP_DELAY=0.000000
_KV=35
_MA=40
_RANGE_WL=1.788970
_3DPLANE=0
_2THETACOUNTS
   0.0000     10512
; (Data for Range number 130)
_DRIVE='PHI'
_STEPTIME=20
_STEPSIZE=5.000000
_STEPMODE='S'
_START=0.000000
_THETA=47.5
_2THETA=95
_KHI=50
_PHI=0.000000
_X=0.000000
_Y=0.000000
_Z=0.000000
_DIVERGENCE=3.000000
_ANTISCATTER=3.000000
_DETECTOR=1
; S.C.
_HV=687
_GAIN=80
_LLD=0.690000
_ULD=1.866000
_DETECTORSLIT='unkn'
_AUX1=0.000000
_AUX2=0.000000
_AUX3=0.000000
_TIMESTARTED=12470
_TEMP_RATE=0.000000
_TEMP_DELAY=0.000000
_KV=35
_MA=40
_RANGE_WL=1.788970
_3DPLANE=0
_2THETACOUNTS
   0.0000     10403
; (Data for Range number 131)
_DRIVE='PHI'
_STEPTIME=20
_STEPSIZE=5.000000
_STEPMODE='S'
_START=0.000000
_THETA=47.5
_2THETA=95
_KHI=55
_PHI=0.000000
_X=0.000000
_Y=0.000000
_Z=0.000000
_DIVERGENCE=3.000000
_ANTISCATTER=3.000000
_DETECTOR=1
; S.C.
_HV=687
_GAIN=80
_LLD=0.690000
_ULD=1.866000
_DETECTORSLIT='unkn'
_AUX1=0.000000
_AUX2=0.000000
_AUX3=0.000000
_TIMESTARTED=12494
_TEMP_RATE=0.000000
_TEMP_DELAY=0.000000
_KV=35
_MA=40
_RANGE_WL=1.788970
_3DPLANE=0
_2THETACOUNTS
   0.0000     10374
; (Data for Range number 132)
_DRIVE='PHI'
_STEPTIME=20
_STEPSIZE=5.000000
_STEPMODE='S'
_START=0.000000
_THETA=47.5
_2THETA=95
_KHI=60
_PHI=0.000000
_X=0.000000
_Y=0.000000
_Z=0.000000
_DIVERGENCE=3.000000
_ANTISCATTER=3.000000
_DETECTOR=1
; S.C.
_HV=687
_GAIN=80
_LLD=0.690000
_ULD=1.866000
_DETECTORSLIT='unkn'
_AUX1=0.000000
_AUX2=0.000000
_AUX3=0.000000
_TIMESTARTED=12519
_TEMP_RATE=0.000000
_TEMP_DELAY=0.000000
_KV=35
_MA=40
_RANGE_WL=1.788970
_3DPLANE=0
_2THETACOUNTS
   0.0000     10412
; (Data for Range number 133)
_DRIVE='PHI'
_STEPTIME=20
_STEPSIZE=5.000000
_STEPMODE='S'
_START=0.000000
_THETA=47.5
_2THETA=95
_KHI=65
_PHI=0.000000
_X=0.000000
_Y=0.000000
_Z=0.000000
_DIVERGENCE=3.000000
_ANTISCATTER=3.000000
_DETECTOR=1
; S.C.
_HV=687
_GAIN=80
_LLD=0.690000
_ULD=1.866000
_DETECTORSLIT='unkn'
_AUX1=0.000000
_AUX2=0.000000
_AUX3=0.000000
_TIMESTARTED=12544
_TEMP_RATE=0.000000
_TEMP_DELAY=0.000000
_KV=35
_MA=40
_RANGE_WL=1.788970
_3DPLANE=0
_2THETACOUNTS
   0.0000     10340
; (Data for Range number 134)
_DRIVE='PHI'
_STEPTIME=20
_STEPSIZE=5.000000
_STEPMODE='S'
_START=0.000000
_THETA=47.5
_2THETA=95
_KHI=70
_PHI=0.000000
_X=0.000000
_Y=0.000000
_Z=0.000000
_DIVERGENCE=3.000000
_ANTISCATTER=3.000000
_DETECTOR=1
; S.C.
_HV=687
_GAIN=80
_LLD=0.690000
_ULD=1.866000
_DETECTORSLIT='unkn'
_AUX1=0.000000
_AUX2=0.000000
_AUX3=0.000000
_TIMESTARTED=12569
_TEMP_RATE=0.000000
_TEMP_DELAY=0.000000
_KV=35
_MA=40
_RANGE_WL=1.788970
_3DPLANE=0
_2THETACOUNTS
   0.0000     10046
; (Data for Range number 135)
_DRIVE='PHI'
_STEPTIME=20
_STEPSIZE=5.000000
_STEPMODE='S'
_START=0.000000
_THETA=47.5
_2THETA=95
_KHI=75
_PHI=0.000000
_X=0.000000
_Y=0.000000
_Z=0.000000
_DIVERGENCE=3.000000
_ANTISCATTER=3.000000
_DETECTOR=1
; S.C.
_HV=687
_GAIN=80
_LLD=0.690000
_ULD=1.866000
_DETECTORSLIT='unkn'
_AUX1=0.000000
_AUX2=0.000000
_AUX3=0.000000
_TIMESTARTED=12594
_TEMP_RATE=0.000000
_TEMP_DELAY=0.000000
_KV=35
_MA=40
_RANGE_WL=1.788970
_3DPLANE=0
_2THETACOUNTS
   0.0000     10187
; (Data for Range number 136)
_DRIVE='PHI'
_STEPTIME=20
_STEPSIZE=5.000000
_STEPMODE='S'
_START=0.000000
_THETA=47.5
_2THETA=95
_KHI=80
_PHI=0.000000
_X=0.000000
_Y=0.000000
_Z=0.000000
_DIVERGENCE=3.000000
_ANTISCATTER=3.000000
_DETECTOR=1
; S.C.
_HV=687
_GAIN=80
_LLD=0.690000
_ULD=1.866000
_DETECTORSLIT='unkn'
_AUX1=0.000000
_AUX2=0.000000
_AUX3=0.000000
_TIMESTARTED=12619
_TEMP_RATE=0.000000
_TEMP_DELAY=0.000000
_KV=35
_MA=40
_RANGE_WL=1.788970
_3DPLANE=0
_2THETACOUNTS
   0.0000      9726
; (Data for Range number 137)
_DRIVE='PHI'
_STEPTIME=20
_STEPSIZE=5.000000
_STEPMODE='S'
_START=0.000000
_THETA=52.5
_2THETA=105
_KHI=0.000000
_PHI=0.000000
_X=0.000000
_Y=0.000000
_Z=0.000000
_DIVERGENCE=3.000000
_ANTISCATTER=3.000000
_DETECTOR=1
; S.C.
_HV=687
_GAIN=80
_LLD=0.690000
_ULD=1.866000
_DETECTORSLIT='unkn'
_AUX1=0.000000
_AUX2=0.000000
_AUX3=0.000000
_TIMESTARTED=12662
_TEMP_RATE=0.000000
_TEMP_DELAY=0.000000
_KV=35
_MA=40
_RANGE_WL=1.788970
_3DPLANE=0
_2THETACOUNTS
   0.0000     10601
; (Data for Range number 138)
_DRIVE='PHI'
_STEPTIME=20
_STEPSIZE=5.000000
_STEPMODE='S'
_START=0.000000
_THETA=52.5
_2THETA=105
_KHI=5.000000
_PHI=0.000000
_X=0.000000
_Y=0.000000
_Z=0.000000
_DIVERGENCE=3.000000
_ANTISCATTER=3.000000
_DETECTOR=1
; S.C.
_HV=687
_GAIN=80
_LLD=0.690000
_ULD=1.866000
_DETECTORSLIT='unkn'
_AUX1=0.000000
_AUX2=0.000000
_AUX3=0.000000
_TIMESTARTED=12686
_TEMP_RATE=0.000000
_TEMP_DELAY=0.000000
_KV=35
_MA=40
_RANGE_WL=1.788970
_3DPLANE=0
_2THETACOUNTS
   0.0000     10508
; (Data for Range number 139)
_DRIVE='PHI'
_STEPTIME=20
_STEPSIZE=5.000000
_STEPMODE='S'
_START=0.000000
_THETA=52.5
_2THETA=105
_KHI=10
_PHI=0.000000
_X=0.000000
_Y=0.000000
_Z=0.000000
_DIVERGENCE=3.000000
_ANTISCATTER=3.000000
_DETECTOR=1
; S.C.
_HV=687
_GAIN=80
_LLD=0.690000
_ULD=1.866000
_DETECTORSLIT='unkn'
_AUX1=0.000000
_AUX2=0.000000
_AUX3=0.000000
_TIMESTARTED=12711
_TEMP_RATE=0.000000
_TEMP_DELAY=0.000000
_KV=35
_MA=40
_RANGE_WL=1.788970
_3DPLANE=0
_2THETACOUNTS
   0.0000     10557
; (Data for Range number 140)
_DRIVE='PHI'
_STEPTIME=20
_STEPSIZE=5.000000
_STEPMODE='S'
_START=0.000000
_THETA=52.5
_2THETA=105
_KHI=15
_PHI=0.000000
_X=0.000000
_Y=0.000000
_Z=0.000000
_DIVERGENCE=3.000000
_ANTISCATTER=3.000000
_DETECTOR=1
; S.C.
_HV=687
_GAIN=80
_LLD=0.690000
_ULD=1.866000
_DETECTORSLIT='unkn'
_AUX1=0.000000
_AUX2=0.000000
_AUX3=0.000000
_TIMESTARTED=12736
_TEMP_RATE=0.000000
_TEMP_DELAY=0.000000
_KV=35
_MA=40
_RANGE_WL=1.788970
_3DPLANE=0
_2THETACOUNTS
   0.0000     10589
; (Data for Range number 141)
_DRIVE='PHI'
_STEPTIME=20
_STEPSIZE=5.000000
_STEPMODE='S'
_START=0.000000
_THETA=52.5
_2THETA=105
_KHI=20
_PHI=0.000000
_X=0.000000
_Y=0.000000
_Z=0.000000
_DIVERGENCE=3.000000
_ANTISCATTER=3.000000
_DETECTOR=1
; S.C.
_HV=687
_GAIN=80
_LLD=0.690000
_ULD=1.866000
_DETECTORSLIT='unkn'
_AUX1=0.000000
_AUX2=0.000000
_AUX3=0.000000
_TIMESTARTED=12761
_TEMP_RATE=0.000000
_TEMP_DELAY=0.000000
_KV=35
_MA=40
_RANGE_WL=1.788970
_3DPLANE=0
_2THETACOUNTS
   0.0000     10421
; (Data for Range number 142)
_DRIVE='PHI'
_STEPTIME=20
_STEPSIZE=5.000000
_STEPMODE='S'
_START=0.000000
_THETA=52.5
_2THETA=105
_KHI=25
_PHI=0.000000
_X=0.000000
_Y=0.000000
_Z=0.000000
_DIVERGENCE=3.000000
_ANTISCATTER=3.000000
_DETECTOR=1
; S.C.
_HV=687
_GAIN=80
_LLD=0.690000
_ULD=1.866000
_DETECTORSLIT='unkn'
_AUX1=0.000000
_AUX2=0.000000
_AUX3=0.000000
_TIMESTARTED=12786
_TEMP_RATE=0.000000
_TEMP_DELAY=0.000000
_KV=35
_MA=40
_RANGE_WL=1.788970
_3DPLANE=0
_2THETACOUNTS
   0.0000     10472
; (Data for Range number 143)
_DRIVE='PHI'
_STEPTIME=20
_STEPSIZE=5.000000
_STEPMODE='S'
_START=0.000000
_THETA=52.5
_2THETA=105
_KHI=30
_PHI=0.000000
_X=0.000000
_Y=0.000000
_Z=0.000000
_DIVERGENCE=3.000000
_ANTISCATTER=3.000000
_DETECTOR=1
; S.C.
_HV=687
_GAIN=80
_LLD=0.690000
_ULD=1.866000
_DETECTORSLIT='unkn'
_AUX1=0.000000
_AUX2=0.000000
_AUX3=0.000000
_TIMESTARTED=12811
_TEMP_RATE=0.000000
_TEMP_DELAY=0.000000
_KV=35
_MA=40
_RANGE_WL=1.788970
_3DPLANE=0
_2THETACOUNTS
   0.0000     10654
; (Data for Range number 144)
_DRIVE='PHI'
_STEPTIME=20
_STEPSIZE=5.000000
_STEPMODE='S'
_START=0.000000
_THETA=52.5
_2THETA=105
_KHI=35
_PHI=0.000000
_X=0.000000
_Y=0.000000
_Z=0.000000
_DIVERGENCE=3.000000
_ANTISCATTER=3.000000
_DETECTOR=1
; S.C.
_HV=687
_GAIN=80
_LLD=0.690000
_ULD=1.866000
_DETECTORSLIT='unkn'
_AUX1=0.000000
_AUX2=0.000000
_AUX3=0.000000
_TIMESTARTED=12836
_TEMP_RATE=0.000000
_TEMP_DELAY=0.000000
_KV=35
_MA=40
_RANGE_WL=1.788970
_3DPLANE=0
_2THETACOUNTS
   0.0000     10618
; (Data for Range number 145)
_DRIVE='PHI'
_STEPTIME=20
_STEPSIZE=5.000000
_STEPMODE='S'
_START=0.000000
_THETA=52.5
_2THETA=105
_KHI=40
_PHI=0.000000
_X=0.000000
_Y=0.000000
_Z=0.000000
_DIVERGENCE=3.000000
_ANTISCATTER=3.000000
_DETECTOR=1
; S.C.
_HV=687
_GAIN=80
_LLD=0.690000
_ULD=1.866000
_DETECTORSLIT='unkn'
_AUX1=0.000000
_AUX2=0.000000
_AUX3=0.000000
_TIMESTARTED=12861
_TEMP_RATE=0.000000
_TEMP_DELAY=0.000000
_KV=35
_MA=40
_RANGE_WL=1.788970
_3DPLANE=0
_2THETACOUNTS
   0.0000     10395
; (Data for Range number 146)
_DRIVE='PHI'
_STEPTIME=20
_STEPSIZE=5.000000
_STEPMODE='S'
_START=0.000000
_THETA=52.5
_2THETA=105
_KHI=45
_PHI=0.000000
_X=0.000000
_Y=0.000000
_Z=0.000000
_DIVERGENCE=3.000000
_ANTISCATTER=3.000000
_DETECTOR=1
; S.C.
_HV=687
_GAIN=80
_LLD=0.690000
_ULD=1.866000
_DETECTORSLIT='unkn'
_AUX1=0.000000
_AUX2=0.000000
_AUX3=0.000000
_TIMESTARTED=12885
_TEMP_RATE=0.000000
_TEMP_DELAY=0.000000
_KV=35
_MA=40
_RANGE_WL=1.788970
_3DPLANE=0
_2THETACOUNTS
   0.0000     10409
; (Data for Range number 147)
_DRIVE='PHI'
_STEPTIME=20
_STEPSIZE=5.000000
_STEPMODE='S'
_START=0.000000
_THETA=52.5
_2THETA=105
_KHI=50
_PHI=0.000000
_X=0.000000
_Y=0.000000
_Z=0.000000
_DIVERGENCE=3.000000
_ANTISCATTER=3.000000
_DETECTOR=1
; S.C.
_HV=687
_GAIN=80
_LLD=0.690000
_ULD=1.866000
_DETECTORSLIT='unkn'
_AUX1=0.000000
_AUX2=0.000000
_AUX3=0.000000
_TIMESTARTED=12910
_TEMP_RATE=0.000000
_TEMP_DELAY=0.000000
_KV=35
_MA=40
_RANGE_WL=1.788970
_3DPLANE=0
_2THETACOUNTS
   0.0000     10374
; (Data for Range number 148)
_DRIVE='PHI'
_STEPTIME=20
_STEPSIZE=5.000000
_STEPMODE='S'
_START=0.000000
_THETA=52.5
_2THETA=105
_KHI=55
_PHI=0.000000
_X=0.000000
_Y=0.000000
_Z=0.000000
_DIVERGENCE=3.000000
_ANTISCATTER=3.000000
_DETECTOR=1
; S.C.
_HV=687
_GAIN=80
_LLD=0.690000
_ULD=1.866000
_DETECTORSLIT='unkn'
_AUX1=0.000000
_AUX2=0.000000
_AUX3=0.000000
_TIMESTARTED=12936
_TEMP_RATE=0.000000
_TEMP_DELAY=0.000000
_KV=35
_MA=40
_RANGE_WL=1.788970
_3DPLANE=0
_2THETACOUNTS
   0.0000     10234
; (Data for Range number 149)
_DRIVE='PHI'
_STEPTIME=20
_STEPSIZE=5.000000
_STEPMODE='S'
_START=0.000000
_THETA=52.5
_2THETA=105
_KHI=60
_PHI=0.000000
_X=0.000000
_Y=0.000000
_Z=0.000000
_DIVERGENCE=3.000000
_ANTISCATTER=3.000000
_DETECTOR=1
; S.C.
_HV=687
_GAIN=80
_LLD=0.690000
_ULD=1.866000
_DETECTORSLIT='unkn'
_AUX1=0.000000
_AUX2=0.000000
_AUX3=0.000000
_TIMESTARTED=12960
_TEMP_RATE=0.000000
_TEMP_DELAY=0.000000
_KV=35
_MA=40
_RANGE_WL=1.788970
_3DPLANE=0
_2THETACOUNTS
   0.0000     10411
; (Data for Range number 150)
_DRIVE='PHI'
_STEPTIME=20
_STEPSIZE=5.000000
_STEPMODE='S'
_START=0.000000
_THETA=52.5
_2THETA=105
_KHI=65
_PHI=0.000000
_X=0.000000
_Y=0.000000
_Z=0.000000
_DIVERGENCE=3.000000
_ANTISCATTER=3.000000
_DETECTOR=1
; S.C.
_HV=687
_GAIN=80
_LLD=0.690000
_ULD=1.866000
_DETECTORSLIT='unkn'
_AUX1=0.000000
_AUX2=0.000000
_AUX3=0.000000
_TIMESTARTED=12985
_TEMP_RATE=0.000000
_TEMP_DELAY=0.000000
_KV=35
_MA=40
_RANGE_WL=1.788970
_3DPLANE=0
_2THETACOUNTS
   0.0000     10204
; (Data for Range number 151)
_DRIVE='PHI'
_STEPTIME=20
_STEPSIZE=5.000000
_STEPMODE='S'
_START=0.000000
_THETA=52.5
_2THETA=105
_KHI=70
_PHI=0.000000
_X=0.000000
_Y=0.000000
_Z=0.000000
_DIVERGENCE=3.000000
_ANTISCATTER=3.000000
_DETECTOR=1
; S.C.
_HV=687
_GAIN=80
_LLD=0.690000
_ULD=1.866000
_DETECTORSLIT='unkn'
_AUX1=0.000000
_AUX2=0.000000
_AUX3=0.000000
_TIMESTARTED=13010
_TEMP_RATE=0.000000
_TEMP_DELAY=0.000000
_KV=35
_MA=40
_RANGE_WL=1.788970
_3DPLANE=0
_2THETACOUNTS
   0.0000     10414
; (Data for Range number 152)
_DRIVE='PHI'
_STEPTIME=20
_STEPSIZE=5.000000
_STEPMODE='S'
_START=0.000000
_THETA=52.5
_2THETA=105
_KHI=75
_PHI=0.000000
_X=0.000000
_Y=0.000000
_Z=0.000000
_DIVERGENCE=3.000000
_ANTISCATTER=3.000000
_DETECTOR=1
; S.C.
_HV=687
_GAIN=80
_LLD=0.690000
_ULD=1.866000
_DETECTORSLIT='unkn'
_AUX1=0.000000
_AUX2=0.000000
_AUX3=0.000000
_TIMESTARTED=13035
_TEMP_RATE=0.000000
_TEMP_DELAY=0.000000
_KV=35
_MA=40
_RANGE_WL=1.788970
_3DPLANE=0
_2THETACOUNTS
   0.0000     10260
; (Data for Range number 153)
_DRIVE='PHI'
_STEPTIME=20
_STEPSIZE=5.000000
_STEPMODE='S'
_START=0.000000
_THETA=52.5
_2THETA=105
_KHI=80
_PHI=0.000000
_X=0.000000
_Y=0.000000
_Z=0.000000
_DIVERGENCE=3.000000
_ANTISCATTER=3.000000
_DETECTOR=1
; S.C.
_HV=687
_GAIN=80
_LLD=0.690000
_ULD=1.866000
_DETECTORSLIT='unkn'
_AUX1=0.000000
_AUX2=0.000000
_AUX3=0.000000
_TIMESTARTED=13060
_TEMP_RATE=0.000000
_TEMP_DELAY=0.000000
_KV=35
_MA=40
_RANGE_WL=1.788970
_3DPLANE=0
_2THETACOUNTS
   0.0000      9946